t,qx,qy,qz,qw,ax,ay,az,gx,gy,gz
1199.504198,-0.635493,0.769213,-0.011299,-0.065819,1.537643,0.875982,-13.124233,-0.001298,0.002033,-0.000819
1199.531522,-0.635514,0.769137,-0.010626,-0.066604,1.537443,0.924478,-13.069418,-0.000234,0.000968,-0.000819
1199.562118,-0.635532,0.769200,-0.010870,-0.065672,1.507972,0.868663,-13.083357,0.000830,0.002033,0.000245
1199.600876,-0.635587,0.769114,-0.009423,-0.066364,1.503679,0.937811,-13.065204,-0.001298,0.002033,0.000245
1199.622155,-0.635571,0.769153,-0.010088,-0.065969,1.518631,0.876871,-13.091673,0.000830,0.000968,-0.000819
1199.647474,-0.635579,0.769113,-0.009849,-0.066385,1.520555,0.927956,-13.073698,-0.000234,0.002033,-0.000819
1199.668759,-0.635594,0.769094,-0.009646,-0.066495,1.515584,0.931026,-13.092992,-0.001298,0.002033,-0.000819
1199.689812,-0.635605,0.769090,-0.009597,-0.066441,1.511053,0.922089,-13.067821,-0.000234,-0.000096,-0.000819
1199.711523,-0.635610,0.769124,-0.010111,-0.065931,1.512502,0.876331,-13.110846,-0.000234,0.002033,-0.001884
1199.732492,-0.635607,0.769102,-0.009948,-0.066229,1.514847,0.920384,-13.042692,-0.001298,0.003097,0.000245
1199.754175,-0.635594,0.769055,-0.009739,-0.066934,1.537312,0.947960,-13.047913,-0.000234,0.002033,0.000245
1199.775100,-0.635575,0.769079,-0.010473,-0.066726,1.550917,0.882583,-13.103904,0.000830,0.000968,-0.001884
1199.796829,-0.635610,0.769098,-0.010305,-0.066199,1.502742,0.897191,-13.096667,-0.000234,0.000968,-0.000819
1199.817899,-0.635631,0.769078,-0.009869,-0.066288,1.502714,0.927446,-13.048159,-0.000234,0.003097,0.000245
1199.838974,-0.635628,0.769049,-0.009821,-0.066666,1.531341,0.931651,-13.071128,-0.000234,0.000968,-0.000819
1199.860710,-0.635646,0.769058,-0.009787,-0.066398,1.508653,0.913235,-13.082938,-0.000234,0.000968,-0.000819
1199.881636,-0.635632,0.769087,-0.010175,-0.066139,1.520859,0.888772,-13.096875,-0.000234,0.002033,0.000245
1199.903326,-0.635653,0.769051,-0.009768,-0.066412,1.509889,0.933639,-13.042259,-0.000234,0.002033,-0.000819
1199.927209,-0.635619,0.769019,-0.010111,-0.067044,1.557697,0.927563,-13.089057,-0.000234,0.000968,-0.000819
1199.949408,-0.635602,0.769068,-0.010823,-0.066545,1.547259,0.868419,-13.136633,-0.000234,-0.000096,-0.000819
1199.970325,-0.635657,0.769085,-0.010381,-0.065882,1.474410,0.890469,-13.034407,-0.000234,0.000968,-0.000819
1199.991428,-0.635645,0.769065,-0.010339,-0.066237,1.526955,0.910685,-13.045417,-0.001298,0.002033,0.000245
1200.015750,-0.635645,0.769026,-0.010375,-0.066679,1.545631,0.919729,-13.110478,-0.001298,0.002033,-0.001884
1200.036658,-0.635677,0.769041,-0.010383,-0.066203,1.512299,0.893170,-13.111600,0.000830,-0.000096,-0.001884
1200.058680,-0.635720,0.769052,-0.010045,-0.065716,1.485877,0.900767,-13.097390,-0.000234,0.000968,-0.000819
1200.079754,-0.635664,0.769041,-0.010828,-0.066248,1.559918,0.880101,-13.020405,-0.000234,0.002033,-0.000819
1200.121639,-0.635647,0.768976,-0.010808,-0.067173,1.548591,0.910759,-13.043510,-0.001298,0.002033,-0.000819
1200.142548,-0.635681,0.769002,-0.010856,-0.066536,1.519828,0.881916,-13.083549,-0.000234,0.000968,-0.001884
1200.163734,-0.635683,0.768974,-0.010603,-0.066890,1.542272,0.924587,-13.065701,-0.000234,0.002033,0.000245
1200.184423,-0.635670,0.768958,-0.010770,-0.067158,1.558090,0.911550,-13.058658,-0.000234,0.000968,-0.000819
1200.205520,-0.635708,0.768974,-0.010723,-0.066628,1.521942,0.893321,-13.106536,0.000830,0.000968,-0.001884
1200.226347,-0.635737,0.768947,-0.010263,-0.066739,1.528560,0.933800,-13.123543,-0.001298,0.000968,-0.000819
1200.247119,-0.635704,0.768942,-0.010584,-0.067054,1.564890,0.913586,-13.115496,-0.001298,0.000968,0.000245
1200.268183,-0.635721,0.768932,-0.010285,-0.067061,1.531332,0.929080,-13.076949,0.000830,0.000968,0.000245
1200.289196,-0.635741,0.768948,-0.010271,-0.066687,1.518457,0.903961,-13.070329,-0.000234,-0.000096,-0.000819
1200.310651,-0.635775,0.768967,-0.010315,-0.066135,1.504098,0.889005,-13.087950,0.000830,0.002033,-0.001884
1200.331270,-0.635778,0.768946,-0.010086,-0.066388,1.520674,0.923409,-13.063997,-0.001298,0.002033,0.000245
1200.352160,-0.635815,0.768896,-0.009365,-0.066713,1.506896,0.963982,-13.076941,-0.000234,0.000968,-0.000819
1200.373685,-0.635819,0.768921,-0.009796,-0.066322,1.511507,0.892415,-13.052245,-0.000234,-0.000096,-0.001884
1200.394438,-0.635830,0.768955,-0.010062,-0.065778,1.495955,0.878758,-13.066402,0.000830,0.000968,-0.000819
1200.415758,-0.635801,0.768923,-0.010146,-0.066421,1.544463,0.924934,-13.096504,-0.001298,0.002033,0.000245
1200.436570,-0.635776,0.768884,-0.010300,-0.067083,1.564750,0.933227,-13.102129,-0.000234,0.002033,-0.000819
1200.458095,-0.635775,0.768834,-0.010245,-0.067680,1.572745,0.950426,-13.133486,-0.000234,0.000968,-0.001884
1200.478721,-0.635801,0.768869,-0.010324,-0.067017,1.519481,0.898128,-13.106832,-0.000234,0.002033,-0.000819
1200.499583,-0.635834,0.768905,-0.010137,-0.066311,1.491868,0.896906,-13.106514,-0.001298,0.002033,0.000245
1200.520970,-0.635894,0.768844,-0.009057,-0.066594,1.486110,0.985165,-13.094007,-0.000234,0.003097,-0.000819
1200.541598,-0.635872,0.768843,-0.009602,-0.066737,1.538730,0.914726,-13.073690,-0.000234,-0.000096,-0.001884
1200.562972,-0.635864,0.768878,-0.010124,-0.066347,1.525604,0.887247,-13.108518,0.000830,0.000968,-0.000819
1200.583584,-0.635880,0.768888,-0.010144,-0.066075,1.507610,0.898733,-13.084704,-0.000234,0.002033,-0.000819
1200.604992,-0.635838,0.768869,-0.010517,-0.066632,1.562449,0.913416,-13.121505,-0.000234,0.002033,0.000245
1200.625612,-0.635869,0.768852,-0.010273,-0.066571,1.519484,0.917128,-13.073253,-0.000234,0.000968,-0.001884
1200.646379,-0.635887,0.768845,-0.010134,-0.066498,1.522832,0.918549,-13.108814,0.000830,-0.000096,-0.000819
1200.667648,-0.635877,0.768878,-0.010488,-0.066167,1.523335,0.882762,-13.096525,-0.000234,0.002033,0.000245
1200.688282,-0.635900,0.768863,-0.010222,-0.066147,1.512175,0.914147,-13.093544,-0.000234,0.002033,-0.000819
1200.709538,-0.635910,0.768829,-0.010125,-0.066472,1.533626,0.924815,-13.100422,-0.000234,-0.000096,-0.001884
1200.730203,-0.635920,0.768865,-0.010570,-0.065886,1.511604,0.862457,-13.090082,-0.000234,0.002033,-0.001884
1200.750981,-0.635945,0.768843,-0.010225,-0.065957,1.507460,0.914535,-13.079475,-0.000234,0.002033,-0.000819
1200.772158,-0.635929,0.768808,-0.010144,-0.066527,1.540778,0.930909,-13.098080,-0.000234,0.002033,0.000245
1200.792896,-0.635941,0.768809,-0.010131,-0.066402,1.522866,0.912370,-13.114473,0.000830,-0.000096,-0.000819
1200.813976,-0.635945,0.768842,-0.010628,-0.065891,1.517650,0.863903,-13.081635,0.000830,-0.000096,-0.001884
1200.834587,-0.635973,0.768833,-0.010346,-0.065785,1.503895,0.904575,-13.091022,0.000830,0.000968,-0.000819
1200.857339,-0.635951,0.768821,-0.010325,-0.066143,1.527914,0.910899,-13.081004,-0.001298,0.002033,0.001309
1200.877932,-0.635964,0.768762,-0.009821,-0.066773,1.528716,0.954731,-13.063931,-0.001298,0.002033,-0.000819
1200.898669,-0.635967,0.768800,-0.010353,-0.066226,1.522203,0.871670,-13.105567,-0.000234,-0.000096,-0.001884
1200.921746,-0.635997,0.768817,-0.010267,-0.065756,1.500276,0.893115,-13.113187,0.000830,0.000968,-0.000819
1200.942447,-0.635982,0.768759,-0.010002,-0.066604,1.543100,0.948281,-13.079782,-0.000234,0.002033,0.000245
1200.963768,-0.636005,0.768740,-0.009859,-0.066636,1.521628,0.927396,-13.093816,-0.000234,0.000968,-0.001884
1200.984261,-0.636019,0.768773,-0.010234,-0.066056,1.511256,0.877399,-13.115683,0.000830,0.000968,-0.001884
1201.007001,-0.635987,0.768790,-0.010757,-0.066084,1.540111,0.882595,-13.103079,-0.000234,0.002033,0.000245
1201.027567,-0.636014,0.768755,-0.010129,-0.066329,1.507441,0.934705,-13.047136,-0.000234,0.002033,0.000245
1201.048431,-0.636045,0.768725,-0.009808,-0.066421,1.513182,0.932291,-13.090755,0.000830,0.000968,-0.001884
1201.069655,-0.636055,0.768765,-0.010141,-0.065806,1.498333,0.874857,-13.076832,0.000830,0.000968,-0.000819
1201.090190,-0.636050,0.768770,-0.010382,-0.065761,1.517360,0.887959,-13.082712,-0.000234,0.002033,-0.000819
1201.111170,-0.636026,0.768733,-0.010400,-0.066426,1.550312,0.925520,-13.118887,-0.000234,0.003097,0.000245
1201.131791,-0.636038,0.768723,-0.010444,-0.066418,1.532589,0.906539,-13.107954,-0.000234,-0.000096,-0.001884
1201.152560,-0.636065,0.768703,-0.010249,-0.066419,1.525144,0.919426,-13.120645,0.000830,-0.000096,-0.001884
1201.173875,-0.636017,0.768751,-0.011200,-0.066180,1.555033,0.848105,-13.087992,-0.000234,0.000968,0.000245
1201.194520,-0.636039,0.768718,-0.010625,-0.066431,1.521824,0.925718,-13.067622,-0.001298,0.002033,0.000245
1201.217474,-0.636076,0.768685,-0.010241,-0.066534,1.519435,0.923242,-13.069966,-0.000234,0.002033,-0.001884
1201.238152,-0.636097,0.768683,-0.010093,-0.066373,1.511192,0.912566,-13.063832,0.000830,-0.000096,-0.000819
1201.262532,-0.636095,0.768709,-0.010468,-0.066023,1.518650,0.883282,-13.077714,-0.000234,0.000968,-0.000819
1201.283388,-0.636106,0.768652,-0.009878,-0.066677,1.529662,0.958685,-13.094936,-0.000234,0.002033,0.000245
1201.304324,-0.636112,0.768655,-0.010105,-0.066551,1.525637,0.905112,-13.072514,-0.000234,0.000968,-0.001884
1201.327649,-0.636130,0.768679,-0.010216,-0.066092,1.507698,0.892785,-13.082063,-0.000234,0.000968,-0.000819
1201.348790,-0.636160,0.768711,-0.010368,-0.065393,1.486373,0.866216,-13.083970,-0.000234,0.000968,-0.001884
1201.372736,-0.636154,0.768647,-0.009931,-0.066260,1.528671,0.943146,-13.090719,-0.000234,0.002033,0.000245
1201.393487,-0.636139,0.768597,-0.009858,-0.066992,1.550310,0.948295,-13.079541,-0.000234,-0.000096,-0.000819
1201.414635,-0.636166,0.768646,-0.010177,-0.066123,1.495934,0.868541,-13.087315,-0.000234,-0.000096,-0.001884
1201.435315,-0.636159,0.768639,-0.010338,-0.066244,1.532626,0.905435,-13.104343,-0.000234,0.000968,-0.000819
1201.456611,-0.636143,0.768615,-0.010491,-0.066652,1.548251,0.914347,-13.087599,-0.001298,0.002033,-0.000819
1201.477318,-0.636166,0.768604,-0.010396,-0.066580,1.525526,0.910960,-13.078712,-0.000234,0.000968,-0.001884
1201.498157,-0.636196,0.768611,-0.010362,-0.066219,1.510065,0.896431,-13.080958,-0.000234,0.000968,-0.001884
1201.519349,-0.636204,0.768645,-0.010495,-0.065719,1.501833,0.876939,-13.088677,-0.000234,0.002033,0.000245
1201.540012,-0.636194,0.768584,-0.010293,-0.066565,1.544690,0.937313,-13.041259,-0.000234,0.000968,-0.000819
1201.561766,-0.636189,0.768521,-0.010184,-0.067341,1.557708,0.946597,-13.054292,-0.000234,0.002033,-0.001884
1201.582787,-0.636212,0.768573,-0.010430,-0.066488,1.506653,0.874476,-13.090781,0.000830,-0.000096,-0.000819
1201.603600,-0.636233,0.768573,-0.010296,-0.066314,1.516970,0.909047,-13.103840,-0.000234,0.000968,-0.000819
1201.624897,-0.636260,0.768536,-0.009662,-0.066574,1.509345,0.951529,-13.091737,-0.000234,0.003097,0.000245
1201.645997,-0.636218,0.768530,-0.010269,-0.066949,1.559305,0.909081,-13.060882,-0.000234,0.000968,-0.000819
1201.667272,-0.636242,0.768561,-0.010658,-0.066307,1.521054,0.870630,-13.099624,-0.000234,-0.000096,-0.002948
1201.687916,-0.636261,0.768546,-0.010259,-0.066355,1.513434,0.921994,-13.071298,-0.000234,0.000968,0.000245
1201.708760,-0.636267,0.768514,-0.009765,-0.066744,1.522570,0.951587,-13.090110,-0.000234,0.002033,0.001309
1201.730032,-0.636248,0.768502,-0.010191,-0.067002,1.551978,0.914883,-13.068507,-0.000234,-0.000096,-0.001884
1201.750682,-0.636236,0.768512,-0.010729,-0.066925,1.554557,0.891604,-13.082817,0.000830,0.000968,-0.001884
1201.771977,-0.636261,0.768562,-0.010918,-0.066078,1.503312,0.859163,-13.078343,-0.000234,0.000968,-0.000819
1201.792667,-0.636283,0.768560,-0.010593,-0.065929,1.508639,0.903051,-13.102665,-0.000234,0.002033,0.000245
1201.813517,-0.636278,0.768484,-0.010234,-0.066916,1.556201,0.957929,-13.079772,-0.000234,0.002033,-0.000819
1201.834761,-0.636304,0.768510,-0.010397,-0.066337,1.509138,0.884963,-13.060302,0.000830,-0.000096,-0.001884
1201.855430,-0.636293,0.768517,-0.010567,-0.066342,1.529442,0.897128,-13.056602,0.000830,0.000968,0.000245
1201.876733,-0.636308,0.768504,-0.010268,-0.066404,1.521579,0.922122,-13.110201,-0.000234,0.002033,0.000245
1201.897381,-0.636286,0.768521,-0.010642,-0.066345,1.537696,0.888869,-13.093943,-0.001298,0.002033,0.000245
1201.918634,-0.636308,0.768540,-0.010592,-0.065933,1.505442,0.884559,-13.074651,-0.002363,0.000968,-0.000819
1201.939293,-0.636313,0.768511,-0.010274,-0.066269,1.525209,0.926035,-13.099571,-0.001298,0.002033,0.000245
1201.960111,-0.636269,0.768504,-0.010775,-0.066693,1.560584,0.899295,-13.066340,-0.000234,0.003097,0.000245
1201.981450,-0.636287,0.768485,-0.010547,-0.066775,1.536065,0.921178,-13.101366,0.000830,0.000968,-0.000819
1202.002105,-0.636339,0.768498,-0.010454,-0.066142,1.499292,0.888995,-13.088110,0.001894,-0.000096,-0.002948
1202.023305,-0.636337,0.768556,-0.011113,-0.065367,1.511783,0.830324,-13.119510,0.001894,0.002033,-0.000819
1202.043978,-0.636341,0.768554,-0.011174,-0.065351,1.516437,0.870179,-13.072458,-0.001298,0.003097,-0.000819
1202.064838,-0.636370,0.768495,-0.010311,-0.065891,1.508163,0.945281,-13.099808,-0.002363,0.004161,0.000245
1202.086089,-0.636365,0.768423,-0.010088,-0.066814,1.550325,0.948361,-13.077170,-0.003427,0.003097,-0.001884
1202.106752,-0.636319,0.768443,-0.011119,-0.066855,1.577856,0.863309,-13.061791,-0.000234,0.000968,-0.001884
1202.127939,-0.636361,0.768471,-0.010733,-0.066193,1.494434,0.891293,-13.091936,-0.001298,0.000968,0.000245
1202.148620,-0.636345,0.768417,-0.010336,-0.067037,1.551605,0.952501,-13.058319,-0.001298,0.002033,0.001309
1202.169800,-0.636365,0.768417,-0.010515,-0.066810,1.534067,0.900151,-13.077947,-0.001298,0.000968,-0.002948
1202.190525,-0.636408,0.768425,-0.010143,-0.066376,1.494438,0.910294,-13.058357,-0.001298,0.000968,-0.000819
1202.211477,-0.636356,0.768440,-0.010733,-0.066602,1.555858,0.892036,-13.067363,0.000830,0.000968,0.001309
1202.232730,-0.636420,0.768365,-0.009674,-0.067008,1.505712,0.980509,-13.045666,0.000830,0.000968,-0.001884
1202.253373,-0.636453,0.768411,-0.009929,-0.066127,1.487467,0.875874,-13.083175,0.001894,-0.000096,-0.001884
1202.274662,-0.636407,0.768452,-0.011297,-0.065881,1.572161,0.812759,-13.103655,-0.000234,0.000968,-0.002948
1202.295499,-0.636462,0.768382,-0.010050,-0.066363,1.496835,0.988595,-13.100922,0.000830,0.002033,0.000245
1202.316278,-0.636437,0.768352,-0.010574,-0.066863,1.565228,0.906191,-13.078360,-0.003427,0.004161,-0.002948
1202.337497,-0.636452,0.768336,-0.010367,-0.066942,1.537254,0.926190,-13.094427,-0.000234,-0.001160,-0.000819
1202.358142,-0.636509,0.768371,-0.010009,-0.066049,1.463324,0.891796,-13.072820,-0.002363,0.000968,-0.000819
1202.379500,-0.636426,0.768393,-0.010749,-0.066472,1.564185,0.891688,-13.080125,0.001894,0.002033,0.003437
1202.400158,-0.636476,0.768316,-0.010302,-0.066959,1.532745,0.940126,-13.026352,-0.001298,0.002033,-0.005076
1202.421349,-0.636498,0.768271,-0.010174,-0.067286,1.552452,0.943369,-13.126730,0.001894,0.000968,-0.002948
1202.441925,-0.636511,0.768268,-0.009826,-0.067241,1.522770,0.943597,-13.074319,0.000830,0.000968,0.001309
1202.462713,-0.636478,0.768298,-0.010571,-0.067093,1.560525,0.887643,-13.095499,-0.001298,0.000968,-0.000819
1202.484039,-0.636487,0.768298,-0.010622,-0.067004,1.543376,0.912772,-13.100748,0.001894,0.000968,-0.000819
1202.504703,-0.636526,0.768287,-0.010201,-0.066824,1.515689,0.928951,-13.081027,0.001894,-0.000096,-0.000819
1202.525904,-0.636561,0.768306,-0.009887,-0.066318,1.489595,0.912657,-13.059811,0.000830,-0.000096,0.000245
1202.546658,-0.636509,0.768360,-0.010813,-0.066056,1.539560,0.852510,-13.059031,0.000830,0.003097,0.001309
1202.567958,-0.636508,0.768341,-0.010643,-0.066304,1.530371,0.911135,-13.072623,-0.000234,0.000968,0.000245
1202.588620,-0.636578,0.768291,-0.009663,-0.066361,1.487594,0.961078,-13.094075,0.000830,-0.000096,-0.001884
1202.609426,-0.636562,0.768319,-0.010395,-0.066075,1.529624,0.870071,-13.076760,0.000830,0.000968,-0.001884
1202.630614,-0.636544,0.768373,-0.011011,-0.065527,1.514443,0.842840,-13.059442,-0.000234,0.000968,0.000245
1202.651225,-0.636583,0.768312,-0.010362,-0.065966,1.514271,0.935604,-13.101548,-0.000234,0.003097,-0.001884
1202.672497,-0.636636,0.768223,-0.009128,-0.066673,1.496683,1.014516,-13.078339,-0.000234,0.000968,-0.000819
1202.693196,-0.636603,0.768266,-0.009982,-0.066364,1.528560,0.871933,-13.053139,-0.002363,0.002033,-0.000819
1202.714014,-0.636579,0.768278,-0.010687,-0.066341,1.544129,0.876807,-13.051648,0.000830,0.000968,-0.001884
1202.735200,-0.636604,0.768240,-0.010230,-0.066622,1.521866,0.933497,-13.047787,0.000830,-0.000096,-0.000819
1202.755854,-0.636585,0.768293,-0.011360,-0.066002,1.546036,0.808989,-13.065191,0.001894,0.000968,-0.002948
1202.777083,-0.636674,0.768307,-0.011116,-0.065022,1.465945,0.849715,-13.113595,0.000830,0.000968,-0.005076
1202.797696,-0.636624,0.768312,-0.011381,-0.065390,1.540119,0.869972,-13.123884,-0.007684,0.007354,0.002373
1202.818885,-0.636593,0.768197,-0.011279,-0.067046,1.620877,0.967277,-13.092268,-0.000234,0.006290,-0.001884
1202.839521,-0.636695,0.768091,-0.010284,-0.067449,1.530738,0.978395,-13.079158,0.000830,-0.000096,-0.007205
1202.861724,-0.636739,0.768129,-0.010172,-0.066620,1.498127,0.899277,-13.064866,0.002959,-0.003288,-0.000819
1202.882987,-0.636691,0.768179,-0.010998,-0.066364,1.551203,0.864838,-13.092424,0.002959,-0.000096,0.001309
1202.903690,-0.636728,0.768201,-0.011135,-0.065731,1.506887,0.859038,-13.082966,-0.000234,0.000968,-0.002948
1202.924932,-0.636724,0.768173,-0.010428,-0.066216,1.515776,0.935660,-13.056396,-0.002363,0.002033,0.003437
1202.945584,-0.636686,0.768135,-0.010596,-0.066985,1.569728,0.928921,-13.083967,-0.000234,0.000968,0.000245
1202.966372,-0.636744,0.768159,-0.010661,-0.066135,1.498256,0.871989,-13.093325,0.001894,-0.001160,-0.004012
1202.987649,-0.636757,0.768171,-0.010433,-0.065916,1.507431,0.904284,-13.101573,0.002959,-0.000096,0.001309
1203.008311,-0.636718,0.768140,-0.010330,-0.066669,1.553886,0.938051,-13.101519,-0.000234,-0.000096,0.002373
1203.029618,-0.636734,0.768179,-0.010876,-0.065970,1.516585,0.850570,-13.084639,-0.001298,0.000968,-0.002948
1203.050312,-0.636771,0.768184,-0.010897,-0.065553,1.509909,0.875500,-13.140570,-0.000234,0.002033,-0.002948
1203.071570,-0.636751,0.768157,-0.010744,-0.066087,1.533990,0.911208,-13.070132,-0.001298,0.003097,0.001309
1203.092207,-0.636768,0.768075,-0.010027,-0.066986,1.539314,0.975332,-13.059744,-0.001298,0.002033,-0.000819
1203.113028,-0.636775,0.768058,-0.010132,-0.067099,1.542160,0.926629,-13.078852,0.001894,-0.000096,-0.001884
1203.134282,-0.636766,0.768135,-0.010975,-0.066152,1.519436,0.823406,-13.065534,0.001894,-0.001160,-0.000819
1203.154930,-0.636754,0.768180,-0.011483,-0.065662,1.531991,0.847136,-13.121955,0.002959,-0.000096,0.000245
1203.176235,-0.636801,0.768147,-0.010579,-0.065753,1.494022,0.926208,-13.092312,-0.001298,0.002033,0.000245
1203.196934,-0.636812,0.768104,-0.010365,-0.066171,1.527684,0.920025,-13.099221,-0.004491,0.004161,-0.001884
1203.217747,-0.636798,0.768068,-0.010354,-0.066726,1.550313,0.928058,-13.114252,-0.004491,0.003097,-0.000819
1203.239000,-0.636785,0.768013,-0.009902,-0.067548,1.553609,0.972292,-13.082870,-0.001298,0.003097,0.001309
1203.259653,-0.636832,0.767980,-0.009244,-0.067582,1.515140,0.977196,-13.078439,0.004023,-0.001160,-0.000819
1203.280963,-0.636840,0.768048,-0.009975,-0.066616,1.511678,0.860250,-13.082859,0.002959,-0.003288,-0.001884
1203.301606,-0.636834,0.768127,-0.010323,-0.065711,1.488680,0.856942,-13.114342,0.000830,0.000968,0.002373
1203.322440,-0.636801,0.768190,-0.011194,-0.065139,1.519319,0.817834,-13.092591,-0.001298,0.002033,0.000245
1203.343665,-0.636787,0.768126,-0.011000,-0.066057,1.543877,0.913685,-13.024806,-0.002363,0.003097,-0.000819
1203.364387,-0.636789,0.768062,-0.010590,-0.066846,1.551615,0.943684,-13.072171,-0.002363,0.000968,-0.000819
1203.385860,-0.636781,0.768054,-0.010953,-0.066953,1.560342,0.900775,-13.099649,0.000830,0.000968,-0.001884
1203.406519,-0.636842,0.768054,-0.010484,-0.066452,1.501238,0.912329,-13.115194,0.000830,0.000968,-0.001884
1203.427354,-0.636879,0.768030,-0.009783,-0.066481,1.496405,0.943845,-13.064528,-0.001298,0.002033,0.000245
1203.448662,-0.636851,0.768022,-0.010207,-0.066770,1.548273,0.913177,-13.086359,-0.001298,0.002033,-0.000819
1203.469384,-0.636899,0.768022,-0.010031,-0.066341,1.501403,0.909249,-13.096061,-0.001298,0.000968,-0.002948
1203.490566,-0.636885,0.768022,-0.009859,-0.066499,1.519302,0.930260,-13.077403,0.000830,-0.000096,0.002373
1203.511229,-0.636823,0.768037,-0.010911,-0.066749,1.577846,0.873394,-13.045621,0.001894,-0.000096,-0.000819
1203.532484,-0.636886,0.767998,-0.010319,-0.066701,1.512246,0.932177,-13.051611,0.002959,-0.001160,-0.002948
1203.553154,-0.636887,0.768031,-0.010814,-0.066222,1.527203,0.866194,-13.086165,-0.001298,0.000968,-0.001884
1203.573989,-0.636834,0.768034,-0.011485,-0.066589,1.576291,0.878183,-13.089804,-0.001298,0.003097,0.000245
1203.595189,-0.636886,0.767988,-0.010754,-0.066755,1.524079,0.932675,-13.077351,-0.002363,0.002033,-0.001884
1203.615838,-0.636931,0.767962,-0.010095,-0.066721,1.511751,0.942684,-13.106695,-0.000234,-0.000096,-0.000819
1203.637094,-0.636921,0.767993,-0.010603,-0.066376,1.534125,0.881414,-13.102040,0.000830,-0.000096,-0.000819
1203.657765,-0.636933,0.767988,-0.011054,-0.066252,1.540357,0.876073,-13.077855,0.000830,0.002033,-0.004012
1203.678604,-0.636981,0.767937,-0.010349,-0.066487,1.516677,0.940684,-13.092197,-0.000234,0.000968,-0.001884
1203.699886,-0.636995,0.767937,-0.010119,-0.066393,1.513311,0.918928,-13.094905,-0.001298,0.002033,0.000245
1203.720574,-0.636987,0.767921,-0.010390,-0.066605,1.541183,0.908617,-13.076898,-0.001298,0.002033,-0.001884
1203.741770,-0.637002,0.767912,-0.010111,-0.066614,1.518113,0.926517,-13.082025,-0.000234,0.002033,0.000245
1203.762449,-0.636970,0.767916,-0.010223,-0.066853,1.543231,0.924800,-13.101287,0.000830,0.002033,0.002373
1203.783696,-0.637022,0.767878,-0.009745,-0.066872,1.519900,0.949157,-13.134010,0.000830,-0.000096,-0.002948
1203.804394,-0.637037,0.767935,-0.010118,-0.066012,1.495759,0.867781,-13.114587,-0.000234,-0.000096,-0.000819
1203.827023,-0.637008,0.767976,-0.010601,-0.065744,1.514187,0.872104,-13.046506,-0.000234,0.002033,0.001309
1203.848215,-0.636956,0.767954,-0.011232,-0.066392,1.573886,0.888296,-13.072529,-0.000234,0.000968,-0.000819
1203.868883,-0.637044,0.767887,-0.010062,-0.066512,1.488717,0.969599,-13.090855,-0.000234,0.000968,-0.002948
1203.890081,-0.637059,0.767930,-0.010803,-0.065745,1.513207,0.835092,-13.078130,-0.000234,-0.000096,-0.004012
1203.910748,-0.637116,0.767878,-0.009987,-0.065926,1.494893,0.945025,-13.108549,0.000830,0.000968,-0.001884
1203.932009,-0.637039,0.767860,-0.010487,-0.066801,1.576911,0.922491,-13.098872,-0.000234,0.002033,0.002373
1203.952678,-0.637033,0.767845,-0.010763,-0.066980,1.552186,0.906926,-13.051529,0.001894,0.000968,-0.001884
1203.973493,-0.637154,0.767841,-0.009979,-0.066001,1.435342,0.910493,-13.092390,0.000830,-0.000096,-0.005076
1203.994854,-0.637129,0.767930,-0.011111,-0.065008,1.507782,0.765463,-13.113204,-0.001298,0.002033,-0.000819
1204.015578,-0.637092,0.767883,-0.011086,-0.065935,1.556632,0.914231,-13.092061,0.000830,0.003097,0.001309
1204.036904,-0.637120,0.767802,-0.010216,-0.066742,1.524074,0.964299,-13.022967,-0.003427,0.003097,-0.000819
1204.057578,-0.637092,0.767734,-0.010193,-0.067779,1.580274,0.964484,-13.061454,-0.000234,0.003097,-0.000819
1204.078357,-0.637117,0.767793,-0.010768,-0.066775,1.521231,0.848616,-13.111698,0.000830,-0.001160,-0.002948
1204.099636,-0.637208,0.767794,-0.009949,-0.066024,1.456606,0.924141,-13.121959,0.001894,-0.000096,-0.001884
1204.120279,-0.637151,0.767783,-0.010104,-0.066681,1.544754,0.929997,-13.044493,0.000830,0.002033,0.003437
1204.141650,-0.637130,0.767777,-0.010793,-0.066839,1.560633,0.890644,-13.074263,-0.001298,0.003097,-0.002948
1204.162278,-0.637181,0.767792,-0.010672,-0.066204,1.503892,0.886843,-13.122283,-0.002363,0.002033,-0.002948
1204.183402,-0.637140,0.767752,-0.010202,-0.067127,1.552562,0.964101,-13.074233,-0.001298,0.002033,0.004502
1204.204036,-0.637109,0.767753,-0.010742,-0.067314,1.564328,0.903704,-13.037923,0.000830,0.000968,-0.000819
1204.226711,-0.637188,0.767739,-0.010326,-0.066791,1.510817,0.919795,-13.106897,0.001894,-0.000096,-0.004012
1204.248124,-0.637202,0.767836,-0.010848,-0.065456,1.467847,0.800865,-13.094745,-0.000234,0.000968,0.000245
1204.268809,-0.637145,0.767839,-0.010916,-0.065960,1.535541,0.897536,-13.042173,-0.002363,0.003097,0.004502
1204.290205,-0.637099,0.767812,-0.010768,-0.066728,1.554176,0.927920,-13.076134,-0.002363,0.004161,0.003437
1204.310970,-0.637118,0.767818,-0.010880,-0.066468,1.532808,0.892304,-13.100193,0.000830,-0.000096,-0.001884
1204.332332,-0.637110,0.767855,-0.011409,-0.066032,1.540362,0.858374,-13.107930,0.002959,-0.002224,-0.000819
1204.353883,-0.637125,0.767855,-0.011348,-0.065890,1.521391,0.877161,-13.038180,0.000830,-0.000096,-0.000819
1204.374671,-0.637196,0.767820,-0.010315,-0.065787,1.482549,0.942312,-13.162255,-0.000234,0.002033,-0.000819
1204.395887,-0.637186,0.767789,-0.010165,-0.066263,1.525451,0.924555,-13.066262,-0.002363,0.003097,0.000245
1204.416691,-0.637155,0.767763,-0.010642,-0.066786,1.559470,0.906001,-13.041748,-0.001298,0.002033,-0.001884
1204.437854,-0.637148,0.767739,-0.010694,-0.067115,1.556553,0.922750,-13.088881,0.000830,0.000968,-0.000819
1204.458560,-0.637153,0.767727,-0.010712,-0.067211,1.550711,0.919659,-13.069948,0.002959,-0.001160,-0.000819
1204.479775,-0.637171,0.767784,-0.011365,-0.066271,1.524026,0.830070,-13.085855,0.000830,-0.000096,-0.002948
1204.501067,-0.637224,0.767812,-0.011175,-0.065466,1.486287,0.860777,-13.106284,-0.001298,0.002033,-0.001884
1204.521730,-0.637212,0.767754,-0.010702,-0.066324,1.545386,0.941445,-13.109076,-0.002363,0.004161,0.001309
1204.542886,-0.637199,0.767707,-0.010475,-0.067034,1.556269,0.943032,-13.095726,-0.001298,0.002033,0.000245
1204.563711,-0.637220,0.767697,-0.010764,-0.066911,1.540392,0.896475,-13.037216,0.000830,0.000968,-0.004012
1204.584996,-0.637267,0.767698,-0.010482,-0.066489,1.515543,0.911860,-13.132500,0.001894,-0.001160,-0.001884
1204.605738,-0.637258,0.767695,-0.010219,-0.066651,1.523034,0.927022,-13.064078,-0.001298,0.002033,0.002373
1204.626503,-0.637234,0.767713,-0.010292,-0.066660,1.531399,0.914183,-13.092903,-0.001298,0.002033,0.002373
1204.647719,-0.637218,0.767707,-0.010730,-0.066812,1.554456,0.900024,-13.083195,-0.001298,0.000968,-0.001884
1204.668326,-0.637244,0.767766,-0.010982,-0.065840,1.490428,0.844130,-13.055554,0.000830,-0.000096,-0.000819
1204.689622,-0.637252,0.767812,-0.011348,-0.065160,1.502432,0.836506,-13.070245,-0.000234,-0.000096,-0.000819
1204.711041,-0.637283,0.767755,-0.010635,-0.065646,1.507480,0.923483,-13.060880,-0.001298,0.002033,-0.000819
1204.731845,-0.637298,0.767667,-0.010062,-0.066612,1.535854,0.963297,-13.059325,-0.002363,0.004161,-0.001884
1204.753026,-0.637308,0.767621,-0.010030,-0.067057,1.546632,0.940377,-13.104239,-0.001298,0.002033,-0.002948
1204.773646,-0.637307,0.767609,-0.010593,-0.067118,1.563866,0.905494,-13.103301,0.002959,-0.001160,-0.004012
1204.794857,-0.637352,0.767590,-0.010061,-0.066978,1.515507,0.942083,-13.085177,0.004023,-0.001160,-0.000819
1204.815541,-0.637398,0.767607,-0.009739,-0.066397,1.486884,0.918911,-13.094601,0.000830,-0.000096,-0.000819
1204.836323,-0.637357,0.767672,-0.010912,-0.065851,1.536458,0.815447,-13.049181,-0.000234,0.002033,-0.000819
1204.857537,-0.637346,0.767672,-0.011002,-0.065951,1.532792,0.889700,-13.107200,-0.002363,0.003097,0.000245
1204.878226,-0.637334,0.767625,-0.010610,-0.066667,1.544471,0.938893,-13.071010,-0.001298,0.002033,0.001309
1204.899631,-0.637319,0.767585,-0.010490,-0.067288,1.562246,0.942911,-13.100269,0.000830,0.000968,0.000245
1204.920294,-0.637354,0.767625,-0.010643,-0.066469,1.508944,0.877792,-13.101534,0.001894,-0.001160,-0.001884
1204.941130,-0.637358,0.767659,-0.010658,-0.066038,1.510037,0.887449,-13.100739,-0.000234,0.002033,0.001309
1204.962409,-0.637276,0.767631,-0.011685,-0.066975,1.632330,0.889061,-13.133518,0.001894,0.002033,-0.000819
1204.983054,-0.637391,0.767592,-0.010185,-0.066570,1.423750,0.983038,-13.081754,-0.003427,0.002033,-0.001884
1205.004316,-0.637357,0.767579,-0.010973,-0.066926,1.576268,0.890740,-13.071371,-0.000234,0.000968,-0.002948
1205.025104,-0.637364,0.767615,-0.011312,-0.066383,1.535478,0.868153,-13.102593,0.002959,-0.001160,-0.000819
1205.046374,-0.637419,0.767573,-0.010779,-0.066429,1.518375,0.918792,-13.056747,0.001894,-0.000096,-0.002948
1205.067042,-0.637444,0.767568,-0.010882,-0.066228,1.528130,0.890319,-13.084831,0.001894,-0.001160,-0.002948
1205.087884,-0.637449,0.767616,-0.011443,-0.065528,1.520179,0.831543,-13.119284,-0.002363,0.000968,-0.001884
1205.109164,-0.637460,0.767624,-0.011293,-0.065350,1.505669,0.870357,-13.065704,-0.003427,0.004161,0.000245
1205.129808,-0.637459,0.767539,-0.010472,-0.066483,1.539451,0.977196,-13.036082,-0.001298,0.003097,0.001309
1205.151136,-0.637454,0.767482,-0.010056,-0.067250,1.551239,0.963570,-13.093245,-0.001298,0.000968,0.000245
1205.171815,-0.637467,0.767542,-0.010687,-0.066340,1.514173,0.847995,-13.090541,0.002959,-0.000096,-0.001884
1205.192696,-0.637506,0.767583,-0.010625,-0.065494,1.475696,0.865522,-13.065305,0.000830,-0.000096,-0.000819
1205.214000,-0.637495,0.767610,-0.010584,-0.065299,1.500453,0.883757,-13.103269,-0.002363,0.002033,0.002373
1205.234630,-0.637478,0.767542,-0.010085,-0.066328,1.535875,0.959589,-13.062721,-0.001298,0.003097,0.001309
1205.255900,-0.637516,0.767548,-0.010256,-0.065857,1.504089,0.886434,-13.093771,-0.000234,-0.001160,-0.004012
1205.276593,-0.637546,0.767539,-0.010314,-0.065673,1.504185,0.894444,-13.065636,0.004023,-0.001160,-0.002948
1205.297845,-0.637569,0.767527,-0.009883,-0.065654,1.492817,0.921130,-13.101623,-0.000234,-0.000096,0.000245
1205.318475,-0.637549,0.767517,-0.010213,-0.065915,1.522257,0.899752,-13.048650,-0.000234,0.003097,-0.000819
1205.339312,-0.637545,0.767503,-0.010447,-0.066077,1.529216,0.899943,-13.085222,-0.001298,0.002033,-0.001884
1205.360604,-0.637508,0.767506,-0.010873,-0.066336,1.548618,0.891890,-13.072346,-0.001298,-0.000096,0.000245
1205.381267,-0.637505,0.767498,-0.010844,-0.066456,1.536383,0.906103,-13.080508,0.000830,0.000968,0.000245
1205.402521,-0.637556,0.767464,-0.010418,-0.066429,1.516872,0.923812,-13.092629,0.001894,-0.000096,-0.002948
1205.423175,-0.637536,0.767510,-0.011310,-0.065941,1.537373,0.831925,-13.062938,-0.001298,0.002033,-0.001884
1205.444038,-0.637600,0.767429,-0.010138,-0.066457,1.508650,0.983952,-13.138304,-0.002363,0.002033,-0.001884
1205.465310,-0.637595,0.767399,-0.009943,-0.066879,1.528973,0.939392,-13.052559,-0.002363,0.004161,0.000245
1205.485951,-0.637558,0.767351,-0.010040,-0.067760,1.570893,0.957877,-13.038921,0.000830,0.002033,0.000245
1205.507218,-0.637635,0.767323,-0.009464,-0.067433,1.508079,0.957574,-13.090861,0.000830,-0.002224,-0.004012
1205.527870,-0.637642,0.767407,-0.010287,-0.066277,1.494403,0.814099,-13.052901,0.000830,-0.002224,-0.001884
1205.549082,-0.637634,0.767438,-0.010606,-0.065952,1.517402,0.880544,-13.089504,-0.000234,0.002033,0.000245
1205.569714,-0.637616,0.767401,-0.010479,-0.066568,1.546732,0.929420,-13.108497,-0.004491,0.003097,0.000245
1205.590660,-0.637614,0.767365,-0.010210,-0.067041,1.540786,0.943598,-13.074903,-0.000234,0.002033,0.000245
1205.611823,-0.637647,0.767300,-0.009926,-0.067520,1.546642,0.958142,-13.071792,0.000830,-0.000096,-0.004012
1205.632486,-0.637693,0.767327,-0.010051,-0.066752,1.505147,0.899733,-13.091952,0.004023,-0.001160,-0.002948
1205.653636,-0.637659,0.767395,-0.010984,-0.066147,1.540589,0.842903,-13.101301,0.002959,-0.002224,0.000245
1205.674242,-0.637680,0.767410,-0.010975,-0.065767,1.512542,0.880303,-13.097964,0.001894,-0.001160,-0.000819
1205.695411,-0.637754,0.767359,-0.009900,-0.065824,1.476699,0.951844,-13.122517,-0.003427,0.003097,-0.001884
1205.716090,-0.637695,0.767321,-0.010142,-0.066788,1.562417,0.937327,-13.084584,-0.004491,0.006290,0.001309
1205.736981,-0.637717,0.767220,-0.009417,-0.067839,1.558954,1.020052,-13.097868,0.002959,-0.001160,-0.001884
1205.758408,-0.637709,0.767329,-0.010786,-0.066468,1.498408,0.635154,-12.948679,0.000830,-0.003288,-0.002948
1205.779413,-0.637691,0.767449,-0.011968,-0.065022,1.509974,0.702529,-13.253960,0.015729,-0.002224,0.001309
1205.801220,-0.637808,0.767335,-0.009907,-0.065582,1.368349,1.170657,-13.132291,-0.010876,0.005225,-0.002948
1205.822098,-0.637814,0.767249,-0.008326,-0.066728,1.466855,1.113952,-13.052889,-0.015133,0.012675,0.004502
1205.843283,-0.637716,0.767291,-0.006855,-0.067341,1.429773,1.075516,-12.918295,-0.006619,0.007354,0.019401
1205.865045,-0.637342,0.767514,-0.008885,-0.068111,1.983840,0.672655,-13.045689,-0.010876,0.006290,0.026850
1205.885943,-0.637798,0.767204,-0.009785,-0.067196,1.550465,0.902138,-13.136835,0.034885,-0.021380,-0.057223
1205.907848,-0.638055,0.767105,-0.007882,-0.066132,0.894144,1.276427,-13.080436,0.022115,-0.012866,-0.011462
1205.928832,-0.637724,0.767378,-0.009431,-0.065951,1.561202,0.810841,-13.128863,-0.015133,0.007354,0.030043
1205.950740,-0.637499,0.767487,-0.011503,-0.066535,1.752020,0.689013,-13.012622,-0.015133,0.019060,0.009823
1205.971673,-0.637616,0.767281,-0.012774,-0.067538,1.698747,0.860251,-13.132392,-0.001298,0.000968,-0.028489
1205.994055,-0.637641,0.767230,-0.010850,-0.068220,1.496652,1.142069,-13.038897,0.001894,-0.005417,0.007694
1206.018507,-0.637480,0.767356,-0.010850,-0.068311,1.573300,0.937645,-13.073552,0.002959,-0.000096,0.017272
1206.041019,-0.637622,0.767325,-0.011904,-0.067139,1.554372,0.797287,-13.096441,0.001894,-0.000096,-0.018911
1206.062403,-0.637655,0.767363,-0.010949,-0.066566,1.475180,0.918975,-13.048703,-0.000234,0.004161,0.005566
1206.083115,-0.637469,0.767375,-0.011190,-0.068148,1.644090,0.961392,-13.044939,-0.008748,0.004161,0.014080
1206.104500,-0.637526,0.767255,-0.010183,-0.069115,1.576181,1.025643,-13.027509,-0.001298,0.000968,-0.004012
1206.125221,-0.637638,0.767294,-0.009918,-0.067673,1.441671,0.887849,-13.084051,0.002959,0.000968,-0.005076
1206.146594,-0.637549,0.767380,-0.011540,-0.067278,1.619211,0.801017,-13.094439,0.005087,-0.002224,0.001309
1206.167450,-0.637571,0.767433,-0.011310,-0.066493,1.509104,0.879755,-13.074315,0.002959,-0.003288,0.002373
1206.188680,-0.637700,0.767358,-0.009891,-0.066356,1.456024,0.982372,-13.106759,-0.000234,0.000968,-0.005076
1206.211063,-0.637607,0.767449,-0.011488,-0.065926,1.574052,0.771456,-13.073271,-0.006619,0.005225,0.001309
1206.232055,-0.637543,0.767420,-0.012432,-0.066718,1.612942,0.860625,-13.029638,-0.000234,0.004161,-0.001884
1206.253850,-0.637630,0.767327,-0.010797,-0.067241,1.507145,1.035790,-13.093177,0.002959,-0.002224,-0.000819
1206.274816,-0.637670,0.767290,-0.009853,-0.067416,1.512896,0.976617,-13.055936,0.001894,-0.000096,0.001309
1206.296177,-0.637622,0.767374,-0.011409,-0.066676,1.589393,0.761413,-13.131661,0.001894,-0.000096,-0.001884
1206.317905,-0.637704,0.767388,-0.010911,-0.065809,1.476307,0.881947,-13.124175,-0.002363,0.002033,-0.002948
1206.338809,-0.637712,0.767306,-0.009655,-0.066876,1.514680,1.035956,-13.044267,-0.003427,0.005225,0.003437
1206.360513,-0.637654,0.767261,-0.010167,-0.067860,1.591207,0.947301,-13.073382,-0.002363,0.004161,-0.000819
1206.382112,-0.637689,0.767291,-0.010916,-0.067068,1.541686,0.858905,-13.088918,0.000830,0.000968,-0.006141
1206.403398,-0.637743,0.767319,-0.010478,-0.066297,1.486997,0.904213,-13.103440,0.004023,-0.001160,0.000245
1206.425202,-0.637751,0.767314,-0.009969,-0.066360,1.508324,0.935857,-13.092262,0.000830,-0.000096,0.002373
1206.446122,-0.637756,0.767340,-0.010712,-0.065888,1.523766,0.854258,-13.082189,-0.001298,0.002033,-0.004012
1206.468845,-0.637772,0.767356,-0.010745,-0.065541,1.501970,0.877534,-13.067334,-0.002363,0.002033,-0.000819
1206.490300,-0.637715,0.767355,-0.011105,-0.066051,1.553235,0.892342,-13.099512,-0.001298,0.002033,0.002373
1206.512981,-0.637766,0.767279,-0.010026,-0.066607,1.509355,0.969294,-13.059290,0.000830,0.000968,-0.000819
1206.533893,-0.637778,0.767331,-0.010741,-0.065775,1.511764,0.837839,-13.109162,0.000830,-0.000096,-0.002948
1206.555035,-0.637768,0.767390,-0.011439,-0.065076,1.512118,0.819123,-13.089328,-0.000234,-0.000096,-0.000819
1206.577092,-0.637781,0.767362,-0.010997,-0.065344,1.509990,0.897369,-13.090498,-0.002363,0.003097,0.000245
1206.598071,-0.637769,0.767278,-0.010486,-0.066529,1.552599,0.961729,-13.072939,-0.002363,0.004161,0.000245
1206.619861,-0.637760,0.767243,-0.010464,-0.067019,1.546000,0.927660,-13.041973,-0.001298,0.002033,-0.000819
1206.640769,-0.637792,0.767255,-0.010613,-0.066548,1.522063,0.892581,-13.089882,0.000830,-0.000096,-0.002948
1206.662462,-0.637834,0.767258,-0.010075,-0.066194,1.491647,0.922528,-13.094602,0.000830,0.000968,0.000245
1206.683389,-0.637823,0.767243,-0.010251,-0.066441,1.527069,0.911181,-13.027631,-0.000234,0.002033,-0.000819
1206.704587,-0.637831,0.767223,-0.010294,-0.066595,1.529218,0.916406,-13.056278,-0.000234,0.000968,-0.001884
1206.729215,-0.637822,0.767275,-0.010950,-0.065976,1.525909,0.863257,-13.105069,-0.000234,0.000968,-0.000819
1206.750366,-0.637852,0.767251,-0.010356,-0.066065,1.506037,0.926230,-13.091912,-0.000234,0.000968,0.000245
1206.772219,-0.637845,0.767200,-0.010183,-0.066746,1.543119,0.940767,-13.090130,-0.001298,0.002033,-0.000819
1206.793373,-0.637833,0.767243,-0.010807,-0.066269,1.533007,0.867851,-13.113345,-0.000234,0.002033,-0.000819
1206.815287,-0.637831,0.767275,-0.011355,-0.065820,1.528624,0.851961,-13.078364,-0.001298,0.000968,-0.001884
1206.836221,-0.637872,0.767204,-0.010438,-0.066391,1.522242,0.961553,-13.121425,-0.000234,0.002033,-0.000819
1206.857297,-0.637895,0.767167,-0.009663,-0.066717,1.503533,0.961227,-13.046070,-0.001298,0.002033,0.001309
1206.879067,-0.637846,0.767218,-0.010995,-0.066394,1.563792,0.833178,-13.062111,0.000830,0.000968,-0.001884
1206.900080,-0.637814,0.767250,-0.011956,-0.066160,1.563792,0.833178,-13.062111,0.000830,0.000968,-0.001884
1206.921898,-0.637866,0.767250,-0.011064,-0.065820,1.484785,0.906304,-13.071559,-0.001298,0.002033,0.001309
1206.942822,-0.637841,0.767179,-0.010819,-0.066917,1.574114,0.949886,-13.109677,-0.002363,0.003097,0.000245
1206.964836,-0.637840,0.767143,-0.010856,-0.067337,1.559252,0.922775,-13.044874,-0.000234,0.000968,-0.001884
1206.985843,-0.637847,0.767187,-0.011412,-0.066670,1.538307,0.856083,-13.060419,0.001894,-0.000096,-0.001884
1207.006915,-0.637872,0.767218,-0.011343,-0.066087,1.510454,0.872804,-13.064466,0.001894,0.002033,0.000245
1207.028826,-0.637919,0.767199,-0.011042,-0.065905,1.506888,0.888157,-13.032032,-0.002363,0.002033,-0.002948
1207.049759,-0.637914,0.767186,-0.011280,-0.066061,1.546006,0.884649,-13.116030,-0.002363,0.002033,-0.001884
1207.071415,-0.637934,0.767162,-0.010804,-0.066223,1.518296,0.914654,-13.075557,-0.002363,0.004161,0.000245
1207.092464,-0.637870,0.767169,-0.011508,-0.066637,1.569582,0.877813,-13.016420,0.000830,0.002033,0.001309
1207.114181,-0.637949,0.767103,-0.010518,-0.066806,1.517698,0.956356,-13.091672,0.004023,-0.003288,-0.002948
1207.135152,-0.637996,0.767145,-0.010382,-0.065894,1.475484,0.879791,-13.071880,0.001894,-0.001160,-0.000819
1207.156296,-0.637963,0.767213,-0.011276,-0.065280,1.520520,0.817836,-13.092551,-0.002363,0.003097,0.000245
1207.178142,-0.637958,0.767232,-0.011763,-0.065011,1.521497,0.835848,-13.094504,-0.004491,0.005225,-0.001884
1207.199092,-0.637981,0.767126,-0.010602,-0.066213,1.533913,1.009444,-13.088739,-0.003427,0.004161,0.000245
1207.220743,-0.637946,0.767024,-0.010066,-0.067799,1.597473,1.022960,-13.081279,-0.001298,0.002033,0.001309
1207.241754,-0.637943,0.767100,-0.011184,-0.066797,1.549273,0.803602,-13.128940,0.004023,-0.001160,-0.002948
1207.263541,-0.637957,0.767185,-0.011610,-0.065605,1.494152,0.813009,-13.092031,0.000830,-0.000096,0.000245
1207.284473,-0.637944,0.767268,-0.011668,-0.064744,1.479611,0.825109,-13.089493,-0.003427,0.003097,0.004502
1207.305562,-0.637967,0.767258,-0.011410,-0.064673,1.484512,0.858440,-13.017217,-0.005555,0.009482,-0.000819
1207.327231,-0.637932,0.767161,-0.011123,-0.066197,1.571791,0.945170,-13.105984,-0.006619,0.013739,0.000245
1207.348135,-0.637954,0.767080,-0.010341,-0.067050,1.544775,0.975501,-13.140282,-0.006619,0.009482,-0.000819
1207.369897,-0.637979,0.767012,-0.009433,-0.067720,1.537299,1.012299,-13.116052,0.007215,-0.000096,0.001309
1207.391862,-0.638015,0.767065,-0.010406,-0.066634,1.527193,0.835773,-13.140602,0.004023,-0.003288,-0.006141
1207.413572,-0.638067,0.767118,-0.010722,-0.065463,1.480157,0.833655,-13.171755,-0.003427,0.000968,-0.004012
1207.434478,-0.637969,0.767133,-0.011710,-0.066071,1.596390,0.862874,-13.164418,-0.005555,0.007354,0.002373
1207.455816,-0.637969,0.767009,-0.010924,-0.067631,1.578235,1.004035,-12.938646,-0.004491,0.007354,-0.000819
1207.477538,-0.638053,0.766873,-0.009904,-0.068534,1.554840,1.024320,-12.987807,0.007215,-0.003288,-0.006141
1207.498452,-0.638161,0.766861,-0.009499,-0.067709,1.506564,0.953679,-13.144152,0.010408,-0.007545,-0.006141
1207.520094,-0.638193,0.766971,-0.010105,-0.066054,1.438193,0.782224,-13.071170,0.005087,-0.004353,-0.000819
1207.541063,-0.638168,0.767050,-0.011207,-0.065193,1.513740,0.785512,-13.085408,0.000830,0.003097,-0.000819
1207.562672,-0.638154,0.766982,-0.010759,-0.066195,1.539783,0.933068,-13.063787,-0.007684,0.006290,0.000245
1207.583585,-0.638177,0.766907,-0.010284,-0.066918,1.537245,0.948931,-13.056267,-0.006619,0.005225,-0.002948
1207.604778,-0.638170,0.766827,-0.009913,-0.067949,1.572593,0.989002,-13.088912,0.000830,0.000968,-0.000819
1207.626608,-0.638228,0.766795,-0.009120,-0.067870,1.509243,0.985261,-13.048133,0.004023,-0.003288,-0.000819
1207.647660,-0.638255,0.766848,-0.009515,-0.066956,1.505011,0.900407,-13.110978,0.004023,-0.003288,-0.001884
1207.669411,-0.638295,0.766893,-0.010135,-0.065966,1.493749,0.851763,-13.084269,-0.000234,-0.001160,-0.005076
1207.690490,-0.638272,0.766970,-0.010791,-0.065195,1.501054,0.833205,-13.102192,-0.001298,-0.001160,0.001309
1207.712284,-0.638223,0.766908,-0.010600,-0.066415,1.563412,0.947824,-13.096887,-0.000234,0.002033,0.002373
1207.733233,-0.638287,0.766777,-0.009232,-0.067508,1.522476,1.088995,-13.042800,0.000830,-0.001160,-0.002948
1207.754404,-0.638276,0.766703,-0.008877,-0.068497,1.566373,1.015916,-13.073697,-0.000234,-0.003288,-0.000819
1207.776106,-0.638204,0.766825,-0.010275,-0.067601,1.571020,0.813021,-13.094209,0.000830,-0.006481,0.002373
1207.797007,-0.638193,0.766943,-0.011430,-0.066156,1.506506,0.693144,-13.072053,0.006151,-0.008610,-0.000819
1207.818337,-0.638241,0.767039,-0.012048,-0.064461,1.429405,0.698452,-13.095045,0.006151,-0.004353,-0.002948
1207.839054,-0.638275,0.767089,-0.012055,-0.063520,1.456848,0.794975,-13.132834,-0.004491,0.004161,-0.000819
1207.860044,-0.638238,0.766986,-0.011287,-0.065250,1.565364,0.981309,-13.105430,-0.013005,0.012675,0.002373
1207.881313,-0.638198,0.766870,-0.010524,-0.067099,1.611575,1.065912,-13.053040,-0.006619,0.007354,0.002373
1207.902083,-0.638210,0.766746,-0.009912,-0.068488,1.603294,1.042415,-13.074826,0.004023,-0.003288,-0.002948
1207.923639,-0.638274,0.766764,-0.009805,-0.067699,1.521466,0.936820,-13.101362,0.010408,-0.008610,-0.002948
1207.944335,-0.638276,0.766864,-0.010905,-0.066366,1.507060,0.756156,-13.058214,0.008280,-0.005417,-0.001884
1207.965296,-0.638326,0.766924,-0.010849,-0.065193,1.449664,0.839374,-13.051958,0.000830,-0.000096,-0.000819
1207.986564,-0.638279,0.767019,-0.011583,-0.064408,1.497707,0.793816,-13.132604,-0.006619,0.005225,0.003437
1208.007233,-0.638269,0.766909,-0.011271,-0.065843,1.573020,0.940229,-13.110472,-0.007684,0.007354,-0.002948
1208.028505,-0.638272,0.766804,-0.009954,-0.067235,1.547429,1.118207,-13.032579,0.000830,0.003097,0.003437
1208.049144,-0.638242,0.766734,-0.009980,-0.068313,1.594408,0.984794,-13.067817,0.004023,-0.001160,-0.000819
1208.069979,-0.638307,0.766776,-0.010183,-0.067191,1.505203,0.891115,-13.098689,0.009344,-0.006481,-0.004012
1208.091204,-0.638372,0.766843,-0.010496,-0.065752,1.446441,0.815708,-13.036771,0.001894,-0.002224,-0.004012
1208.112001,-0.638314,0.766926,-0.011675,-0.065141,1.543294,0.787260,-13.153341,-0.001298,0.003097,0.001309
1208.133534,-0.638296,0.766876,-0.011082,-0.065997,1.530385,0.922588,-13.050579,-0.008748,0.007354,0.002373
1208.154302,-0.638324,0.766778,-0.010081,-0.067019,1.537544,1.003238,-13.095464,-0.004491,0.005225,-0.000819
1208.175811,-0.638303,0.766747,-0.010439,-0.067522,1.575459,0.935323,-13.113734,0.001894,-0.000096,-0.001884
1208.196700,-0.638314,0.766782,-0.010906,-0.066944,1.536877,0.881671,-13.049733,0.006151,-0.003288,-0.001884
1208.217539,-0.638349,0.766842,-0.011094,-0.065886,1.493611,0.849899,-13.107930,0.004023,-0.002224,-0.000819
1208.238874,-0.638400,0.766881,-0.010853,-0.064970,1.461175,0.858721,-13.092789,-0.000234,0.000968,-0.000819
1208.259683,-0.638379,0.766856,-0.011021,-0.065442,1.528339,0.884900,-13.063218,-0.004491,0.004161,-0.000819
1208.281017,-0.638373,0.766777,-0.010802,-0.066454,1.555214,0.934809,-13.088274,-0.003427,0.005225,-0.001884
1208.301669,-0.638371,0.766699,-0.009988,-0.067494,1.556739,1.004411,-13.097248,-0.002363,-0.000096,0.001309
1208.322917,-0.638410,0.766718,-0.009800,-0.066935,1.507096,0.928142,-13.109766,0.002959,-0.002224,-0.000819
1208.343634,-0.638444,0.766783,-0.010347,-0.065772,1.475051,0.831233,-13.042439,0.002959,-0.002224,-0.002948
1208.364483,-0.638436,0.766836,-0.011004,-0.065125,1.504704,0.833411,-13.094958,-0.000234,0.002033,-0.000819
1208.385771,-0.638419,0.766801,-0.010562,-0.065779,1.526161,0.928753,-13.131708,-0.003427,0.004161,0.002373
1208.406428,-0.638420,0.766725,-0.009927,-0.066737,1.533313,0.974084,-13.061076,-0.002363,0.004161,0.000245
1208.427617,-0.638408,0.766717,-0.010316,-0.066886,1.547050,0.914345,-13.087639,-0.000234,0.000968,-0.001884
1208.448255,-0.638404,0.766736,-0.010661,-0.066658,1.534224,0.894500,-13.064634,0.001894,-0.000096,-0.000819
1208.469155,-0.638422,0.766766,-0.010670,-0.066126,1.505383,0.888101,-13.077184,0.001894,0.000968,0.000245
1208.490489,-0.638482,0.766766,-0.010217,-0.065620,1.477392,0.904228,-13.102575,-0.000234,0.002033,-0.001884
1208.511166,-0.638453,0.766742,-0.010514,-0.066139,1.540071,0.906474,-13.067344,-0.002363,0.003097,-0.000819
1208.532611,-0.638424,0.766739,-0.010836,-0.066401,1.547110,0.900684,-13.102461,-0.001298,0.003097,0.000245
1208.553337,-0.638439,0.766697,-0.010314,-0.066819,1.531016,0.947961,-13.090854,-0.000234,0.002033,0.000245
1208.574584,-0.638447,0.766642,-0.009925,-0.067429,1.545346,0.965324,-13.073341,0.000830,-0.000096,-0.000819
1208.595348,-0.638434,0.766673,-0.010783,-0.067061,1.557201,0.874935,-13.076054,0.001894,-0.001160,-0.002948
1208.616176,-0.638442,0.766714,-0.011279,-0.066443,1.534393,0.859797,-13.099884,-0.000234,0.000968,-0.001884
1208.637683,-0.638443,0.766664,-0.010699,-0.067102,1.544446,0.948912,-13.057212,-0.001298,0.003097,0.001309
1208.658474,-0.638438,0.766634,-0.010655,-0.067491,1.554421,0.931516,-13.033554,-0.001298,0.002033,-0.000819
1208.679856,-0.638481,0.766636,-0.010589,-0.067080,1.526773,0.911161,-13.071558,0.000830,-0.000096,-0.002948
1208.700571,-0.638485,0.766684,-0.011042,-0.066407,1.523741,0.863009,-13.070709,0.000830,-0.000096,-0.000819
1208.721454,-0.638511,0.766687,-0.010866,-0.066157,1.515922,0.898319,-13.099838,-0.000234,0.002033,-0.000819
1208.742710,-0.638532,0.766641,-0.010395,-0.066565,1.528677,0.939372,-13.096486,-0.000234,0.002033,-0.000819
1208.763480,-0.638541,0.766654,-0.010517,-0.066305,1.518446,0.897584,-13.083103,-0.000234,0.002033,-0.000819
1208.784935,-0.638541,0.766673,-0.010804,-0.066044,1.520003,0.881408,-13.058594,-0.000234,0.000968,-0.000819
1208.805797,-0.638546,0.766622,-0.010480,-0.066625,1.538447,0.937546,-13.075900,-0.000234,0.000968,-0.000819
1208.827166,-0.638560,0.766613,-0.010362,-0.066622,1.523120,0.918536,-13.066073,-0.000234,0.000968,-0.000819
1208.847947,-0.638562,0.766606,-0.010553,-0.066650,1.537570,0.907308,-13.080522,-0.001298,-0.000096,-0.001884
1208.868761,-0.638570,0.766651,-0.010924,-0.065998,1.513954,0.863499,-13.095984,-0.000234,0.000968,-0.000819
1208.890042,-0.638555,0.766655,-0.011076,-0.066071,1.534129,0.889028,-13.088134,-0.002363,0.002033,0.000245
1208.910745,-0.638557,0.766611,-0.010688,-0.066616,1.538491,0.933938,-13.075738,-0.001298,0.002033,0.000245
1208.932008,-0.638560,0.766626,-0.011059,-0.066355,1.533218,0.878895,-13.062788,-0.000234,0.000968,-0.001884
1208.952688,-0.638580,0.766655,-0.011135,-0.065812,1.512545,0.871454,-13.113002,-0.000234,-0.000096,-0.000819
1208.973946,-0.638590,0.766685,-0.011368,-0.065329,1.513844,0.856692,-13.124173,-0.000234,0.000968,-0.000819
1208.994681,-0.638600,0.766625,-0.010748,-0.066034,1.523046,0.934669,-13.048987,-0.001298,0.003097,0.000245
1209.015581,-0.638623,0.766622,-0.010543,-0.065885,1.505239,0.901399,-13.075405,-0.001298,0.000968,-0.000819
1209.036815,-0.638608,0.766609,-0.010902,-0.066117,1.539133,0.889896,-13.057144,-0.001298,-0.000096,-0.001884
1209.057498,-0.638599,0.766615,-0.011207,-0.066090,1.538962,0.881556,-13.097136,-0.000234,0.002033,-0.000819
1209.078843,-0.638623,0.766605,-0.010961,-0.066013,1.518364,0.899758,-13.091511,-0.000234,0.000968,-0.000819
1209.099633,-0.638622,0.766573,-0.011017,-0.066380,1.540357,0.902654,-13.031556,-0.000234,-0.000096,-0.001884
1209.120536,-0.638609,0.766593,-0.011605,-0.066177,1.543296,0.856886,-13.031800,-0.000234,-0.000096,-0.001884
1209.141809,-0.638609,0.766585,-0.011519,-0.066286,1.543608,0.893527,-13.099886,-0.000234,0.000968,0.000245
1209.162558,-0.638647,0.766539,-0.010676,-0.066582,1.520066,0.948615,-13.110241,-0.000234,0.003097,0.000245
1209.183821,-0.638642,0.766542,-0.010896,-0.066562,1.536688,0.896038,-13.052751,-0.000234,0.000968,-0.000819
1209.204546,-0.638655,0.766555,-0.011134,-0.066249,1.530603,0.880502,-13.091434,0.000830,0.000968,-0.001884
1209.227462,-0.638693,0.766578,-0.011174,-0.065606,1.504269,0.868226,-13.098892,0.000830,0.002033,-0.001884
1209.248110,-0.638716,0.766554,-0.010835,-0.065731,1.514589,0.906604,-13.104998,-0.000234,0.002033,-0.000819
1209.268959,-0.638732,0.766503,-0.010362,-0.066235,1.520552,0.935536,-13.060978,-0.000234,0.000968,-0.000819
1209.290364,-0.638741,0.766538,-0.010817,-0.065667,1.511535,0.862159,-13.100753,-0.000234,0.000968,-0.001884
1209.311398,-0.638750,0.766547,-0.010762,-0.065482,1.505284,0.887672,-13.092599,0.000830,0.000968,0.000245
1209.332838,-0.638742,0.766484,-0.010529,-0.066340,1.543238,0.936220,-13.080429,-0.000234,0.002033,-0.000819
1209.353535,-0.638761,0.766477,-0.010526,-0.066239,1.518434,0.903862,-13.073887,-0.000234,0.000968,-0.001884
1209.374905,-0.638786,0.766493,-0.010811,-0.065757,1.508050,0.871531,-13.066864,0.000830,0.000968,-0.002948
1209.395610,-0.638786,0.766456,-0.010672,-0.066213,1.531553,0.917382,-13.064552,-0.000234,0.002033,-0.000819
1209.416466,-0.638787,0.766388,-0.010111,-0.067072,1.540716,0.968613,-13.041594,-0.000234,0.000968,0.000245
1209.437700,-0.638774,0.766392,-0.010457,-0.067091,1.544858,0.912728,-13.059153,0.000830,0.000968,-0.000819
1209.460133,-0.638755,0.766417,-0.011024,-0.066899,1.554488,0.890038,-13.095807,0.000830,-0.000096,-0.000819
1209.481201,-0.638779,0.766461,-0.011186,-0.066135,1.513751,0.866413,-13.121046,-0.000234,0.000968,-0.000819
1209.502575,-0.638789,0.766455,-0.011136,-0.066112,1.529258,0.893797,-13.089696,-0.000234,0.000968,-0.000819
1209.523278,-0.638782,0.766417,-0.011239,-0.066611,1.552389,0.904012,-13.026466,-0.000234,0.000968,-0.001884
1209.544525,-0.638802,0.766474,-0.011690,-0.065669,1.509590,0.826170,-13.095660,-0.000234,0.000968,-0.001884
1209.565184,-0.638839,0.766436,-0.011225,-0.065837,1.526309,0.909144,-13.143889,-0.000234,0.000968,-0.001884
1209.586621,-0.638840,0.766378,-0.010736,-0.066578,1.542024,0.941228,-13.073570,-0.000234,0.000968,0.000245
1209.607324,-0.638864,0.766356,-0.010403,-0.066656,1.521764,0.927991,-13.072472,-0.000234,0.000968,-0.000819
1209.628298,-0.638861,0.766363,-0.010785,-0.066537,1.538923,0.892778,-13.083392,-0.000234,0.000968,-0.001884
1209.649645,-0.638845,0.766382,-0.011136,-0.066424,1.540249,0.885728,-13.077100,0.000830,0.002033,0.000245
1209.670635,-0.638872,0.766361,-0.010600,-0.066494,1.515802,0.926909,-13.067876,-0.000234,0.000968,0.000245
1209.693451,-0.638908,0.766348,-0.010181,-0.066359,1.506135,0.924122,-13.081132,-0.000234,0.000968,-0.000819
1209.714166,-0.638907,0.766372,-0.010669,-0.066018,1.522304,0.875907,-13.083199,-0.000234,0.000968,-0.001884
1209.735388,-0.638885,0.766398,-0.011114,-0.065854,1.533010,0.872926,-13.104074,-0.000234,0.000968,0.000245
1209.756062,-0.638923,0.766353,-0.010421,-0.066124,1.510532,0.938809,-13.116059,-0.001298,0.003097,-0.000819
1209.776892,-0.638937,0.766348,-0.010157,-0.066081,1.502693,0.917229,-13.069071,-0.001298,0.002033,0.000245
1209.798246,-0.638916,0.766348,-0.010715,-0.066195,1.540281,0.888398,-13.067722,-0.000234,-0.000096,-0.001884
1209.818916,-0.638933,0.766399,-0.011173,-0.065369,1.496461,0.834122,-13.069152,-0.000234,0.000968,-0.001884
1209.840104,-0.638940,0.766332,-0.010702,-0.066147,1.534812,0.936138,-13.083081,-0.001298,0.002033,-0.000819
1209.861610,-0.638977,0.766315,-0.010222,-0.066070,1.497859,0.920894,-13.067022,-0.001298,0.000968,-0.000819
1209.882473,-0.638996,0.766318,-0.010135,-0.065866,1.499158,0.906132,-13.078193,-0.000234,0.000968,-0.000819
1209.903789,-0.638977,0.766347,-0.010372,-0.065676,1.510023,0.889921,-13.098475,-0.001298,0.000968,0.001309
1209.924526,-0.638962,0.766327,-0.010689,-0.066000,1.535381,0.896842,-13.067074,-0.001298,0.000968,-0.001884
1209.945931,-0.638982,0.766280,-0.010216,-0.066427,1.518188,0.938235,-13.050494,-0.000234,0.000968,-0.000819
1209.966677,-0.638956,0.766339,-0.011101,-0.065858,1.526628,0.833472,-13.050310,-0.001298,0.000968,-0.000819
1209.988286,-0.638946,0.766304,-0.011140,-0.066348,1.549548,0.908435,-13.083732,0.001894,0.000968,-0.000819
1210.009061,-0.638985,0.766273,-0.010660,-0.066411,1.522646,0.925336,-13.124552,-0.002363,0.000968,-0.001884
1210.029994,-0.639003,0.766230,-0.010412,-0.066766,1.532574,0.933054,-13.064027,-0.000234,0.002033,-0.001884
1210.051587,-0.639025,0.766210,-0.010259,-0.066819,1.526578,0.926764,-13.073444,-0.001298,0.000968,-0.001884
1210.072569,-0.639030,0.766265,-0.010925,-0.066023,1.515426,0.845690,-13.086836,0.000830,0.000968,-0.001884
1210.093803,-0.638987,0.766257,-0.010771,-0.066555,1.542189,0.925492,-13.076427,0.000830,0.003097,0.004502
1210.114490,-0.638972,0.766185,-0.010675,-0.067543,1.571138,0.948817,-13.018333,-0.003427,0.003097,-0.001884
1210.135801,-0.639034,0.766207,-0.010680,-0.066694,1.509811,0.890264,-13.129359,0.000830,-0.000096,-0.004012
1210.156523,-0.639027,0.766254,-0.011099,-0.066154,1.523628,0.865051,-13.083860,-0.000234,0.000968,0.000245
1210.177335,-0.638993,0.766308,-0.011588,-0.065772,1.532100,0.852675,-13.096084,-0.000234,0.002033,0.002373
1210.198623,-0.639046,0.766235,-0.010674,-0.066259,1.514301,0.948392,-13.074815,-0.000234,0.002033,-0.001884
1210.219285,-0.639038,0.766236,-0.010877,-0.066293,1.534208,0.894434,-13.067006,-0.001298,-0.000096,-0.000819
1210.240522,-0.639027,0.766283,-0.011516,-0.065735,1.526428,0.841462,-13.066102,0.000830,-0.000096,-0.000819
1210.261209,-0.639074,0.766211,-0.010654,-0.066274,1.514468,0.947851,-13.051046,-0.001298,0.002033,-0.001884
1210.281953,-0.639051,0.766167,-0.010780,-0.066980,1.567266,0.931190,-13.088898,0.001894,0.000968,-0.000819
1210.303193,-0.639082,0.766088,-0.010094,-0.067692,1.539739,0.975914,-12.995659,0.000830,-0.000096,-0.001884
1210.323893,-0.639077,0.766160,-0.011135,-0.066742,1.545567,0.812015,-13.129438,0.000830,-0.001160,-0.002948
1210.345108,-0.639130,0.766164,-0.010654,-0.066273,1.481982,0.900918,-12.962213,0.000830,0.002033,-0.000819
1210.365832,-0.639092,0.766196,-0.011512,-0.066126,1.568699,0.858784,-13.180593,0.000830,-0.000096,-0.000819
1210.387051,-0.639156,0.766166,-0.011314,-0.065884,1.521705,0.891027,-13.145612,0.001894,0.003097,-0.005076
1210.407666,-0.639200,0.766216,-0.010584,-0.064993,1.425964,0.882381,-13.106886,-0.004491,0.005225,0.003437
1210.428458,-0.639097,0.766207,-0.011481,-0.065948,1.589628,0.876199,-13.075026,-0.004491,0.007354,0.002373
1210.449710,-0.639146,0.766094,-0.010495,-0.066951,1.542550,0.995257,-13.079511,0.000830,0.002033,-0.002948
1210.470449,-0.639207,0.766050,-0.009931,-0.066958,1.516546,0.950241,-13.095000,-0.001298,-0.003288,-0.004012
1210.493618,-0.639175,0.766106,-0.010392,-0.066542,1.530318,0.898247,-13.102914,0.002959,-0.003288,0.002373
1210.514356,-0.639146,0.766141,-0.011317,-0.066277,1.556184,0.852951,-13.086982,0.000830,-0.001160,-0.001884
1210.535115,-0.639222,0.766140,-0.010928,-0.065617,1.477895,0.881097,-13.068297,-0.001298,0.002033,-0.004012
1210.556274,-0.639158,0.766091,-0.010990,-0.066798,1.575920,0.933532,-13.048355,-0.003427,0.003097,0.002373
1210.577001,-0.639157,0.766080,-0.011339,-0.066867,1.557074,0.890836,-13.067269,-0.002363,0.002033,-0.002948
1210.599247,-0.639195,0.766050,-0.011008,-0.066905,1.539663,0.922421,-13.100114,0.002959,0.000968,-0.001884
1210.620628,-0.639186,0.766027,-0.010934,-0.067261,1.557750,0.927795,-13.080756,0.000830,0.000968,0.000245
1210.642042,-0.639218,0.766033,-0.010722,-0.066916,1.524228,0.914335,-13.087214,0.000830,0.000968,-0.000819
1210.662686,-0.639248,0.766045,-0.010700,-0.066502,1.514901,0.896572,-13.076055,-0.002363,0.002033,-0.001884
1210.683563,-0.639229,0.766037,-0.010846,-0.066751,1.543693,0.909084,-13.060217,-0.002363,0.004161,0.000245
1210.704909,-0.639237,0.765971,-0.010199,-0.067531,1.552252,0.977940,-13.096223,-0.001298,0.000968,0.000245
1210.725549,-0.639265,0.765918,-0.009705,-0.067938,1.546155,0.981339,-13.103699,-0.000234,-0.000096,-0.001884
1210.746800,-0.639292,0.765958,-0.010282,-0.067152,1.526917,0.882670,-13.099963,-0.001298,0.000968,-0.004012
1210.767466,-0.639296,0.766036,-0.011104,-0.066071,1.504130,0.803226,-13.054467,-0.000234,0.000968,-0.001884
1210.788679,-0.639342,0.766009,-0.010240,-0.066076,1.483448,0.934826,-13.042009,-0.003427,0.003097,0.000245
1210.809332,-0.639298,0.765958,-0.010366,-0.067074,1.566140,0.944174,-13.055090,-0.003427,0.004161,0.000245
1210.830122,-0.639274,0.765935,-0.010938,-0.067478,1.576241,0.910877,-13.040217,-0.000234,0.000968,-0.002948
1210.851315,-0.639338,0.765918,-0.010319,-0.067150,1.510708,0.940838,-13.086469,0.001894,-0.000096,-0.001884
1210.871954,-0.639381,0.765906,-0.009666,-0.066978,1.498587,0.955547,-13.076844,0.000830,-0.000096,0.000245
1210.893176,-0.639401,0.765935,-0.009932,-0.066415,1.501769,0.898180,-13.061135,-0.000234,0.000968,-0.001884
1210.913896,-0.639426,0.765944,-0.010142,-0.066046,1.505244,0.896356,-13.083490,-0.000234,0.000968,-0.002948
1210.934773,-0.639384,0.765967,-0.010651,-0.066098,1.535285,0.888832,-13.095208,-0.002363,0.003097,0.001309
1210.956096,-0.639321,0.765957,-0.011005,-0.066765,1.567483,0.913148,-13.088090,-0.001298,0.003097,0.002373
1210.976802,-0.639367,0.765889,-0.010224,-0.067226,1.536516,0.974877,-13.119165,0.001894,-0.001160,-0.001884
1210.998118,-0.639368,0.765930,-0.011164,-0.066591,1.545526,0.846011,-13.076348,0.001894,-0.000096,-0.004012
1211.018762,-0.639396,0.765984,-0.011525,-0.065632,1.501122,0.832234,-13.093838,0.001894,-0.000096,-0.001884
1211.039597,-0.639439,0.765942,-0.010800,-0.065835,1.507118,0.926972,-13.108526,-0.000234,0.002033,-0.000819
1211.060875,-0.639446,0.765922,-0.010657,-0.066022,1.517333,0.906827,-13.053877,-0.002363,0.002033,-0.000819
1211.081549,-0.639479,0.765892,-0.010141,-0.066133,1.505792,0.935291,-13.112500,-0.000234,0.002033,-0.000819
1211.102741,-0.639469,0.765964,-0.010659,-0.065307,1.491328,0.846617,-13.095991,0.000830,0.000968,0.001309
1211.123434,-0.639405,0.765974,-0.011056,-0.065754,1.543749,0.889079,-13.086628,-0.000234,0.002033,0.003437
1211.144244,-0.639435,0.765882,-0.010614,-0.066594,1.541015,0.947127,-13.034695,0.001894,-0.000096,-0.004012
1211.165496,-0.639473,0.765912,-0.011000,-0.065823,1.508042,0.857573,-13.092358,0.001894,-0.001160,-0.004012
1211.186200,-0.639465,0.765949,-0.011192,-0.065425,1.509225,0.865090,-13.081969,0.000830,-0.000096,0.001309
1211.207408,-0.639441,0.765911,-0.011015,-0.066133,1.541127,0.917235,-13.070161,-0.001298,0.003097,0.001309
1211.228056,-0.639446,0.765838,-0.010521,-0.067006,1.554768,0.963246,-13.104982,-0.001298,0.002033,-0.000819
1211.249332,-0.639491,0.765817,-0.010119,-0.066890,1.514394,0.937402,-13.080258,0.000830,0.000968,-0.001884
1211.269945,-0.639461,0.765840,-0.010788,-0.066800,1.552258,0.888256,-13.073250,-0.000234,-0.000096,-0.000819
1211.290716,-0.639457,0.765856,-0.011094,-0.066606,1.544717,0.891863,-13.116393,0.000830,0.000968,-0.000819
1211.312109,-0.639496,0.765854,-0.010726,-0.066320,1.507585,0.908752,-13.070906,-0.000234,0.000968,-0.000819
1211.332814,-0.639494,0.765829,-0.010676,-0.066629,1.535256,0.917819,-13.049017,-0.001298,0.002033,-0.000819
1211.354033,-0.639486,0.765852,-0.011093,-0.066375,1.535546,0.879837,-13.072248,-0.000234,0.000968,-0.000819
1211.374799,-0.639540,0.765835,-0.010556,-0.066134,1.497796,0.916823,-13.083461,-0.000234,0.000968,-0.001884
1211.395691,-0.639532,0.765790,-0.010467,-0.066750,1.549095,0.938108,-13.099308,0.000830,0.000968,-0.000819
1211.417203,-0.639511,0.765792,-0.010727,-0.066884,1.548326,0.912140,-13.080377,0.000830,-0.000096,0.000245
1211.437860,-0.639548,0.765824,-0.010949,-0.066120,1.509000,0.869174,-13.108271,0.000830,-0.000096,-0.002948
1211.459437,-0.639576,0.765837,-0.010854,-0.065717,1.501686,0.886429,-13.093851,-0.000234,0.003097,-0.000819
1211.480219,-0.639557,0.765781,-0.010661,-0.066579,1.549338,0.939166,-13.061364,0.000830,0.002033,0.000245
1211.501610,-0.639601,0.765741,-0.010089,-0.066707,1.513151,0.944815,-13.073507,-0.000234,-0.000096,-0.001884
1211.522422,-0.639589,0.765756,-0.010653,-0.066558,1.539034,0.889467,-13.072559,-0.000234,0.000968,-0.001884
1211.543377,-0.639585,0.765793,-0.011121,-0.066100,1.528300,0.868271,-13.098090,0.000830,0.000968,-0.000819
1211.565013,-0.639616,0.765729,-0.010242,-0.066671,1.516630,0.964529,-13.057649,0.000830,0.002033,0.000245
1211.585730,-0.639660,0.765704,-0.009627,-0.066629,1.496137,0.952806,-13.088674,-0.000234,0.002033,-0.000819
1211.607149,-0.639638,0.765727,-0.010389,-0.066458,1.541209,0.888480,-13.108051,-0.000234,0.000968,-0.001884
1211.628051,-0.639639,0.765735,-0.010581,-0.066331,1.525559,0.900974,-13.091325,-0.000234,0.002033,-0.000819
1211.649450,-0.639641,0.765710,-0.010315,-0.066642,1.529951,0.934629,-13.093859,-0.001298,0.000968,0.000245
1211.670113,-0.639630,0.765673,-0.010283,-0.067168,1.550435,0.942512,-13.070972,-0.000234,-0.000096,-0.000819
1211.691204,-0.639633,0.765674,-0.010715,-0.067070,1.547377,0.903110,-13.058642,0.000830,-0.000096,-0.002948
1211.712651,-0.639651,0.765737,-0.011113,-0.066101,1.505688,0.850186,-13.098043,0.000830,0.000968,-0.000819
1211.733444,-0.639654,0.765687,-0.010679,-0.066723,1.538518,0.941651,-13.058275,-0.000234,0.002033,0.000245
1211.754667,-0.639662,0.765697,-0.010782,-0.066512,1.524629,0.898355,-13.055631,-0.000234,0.000968,-0.000819
1211.776172,-0.639659,0.765713,-0.011067,-0.066310,1.533047,0.885748,-13.076155,-0.000234,-0.000096,-0.000819
1211.797200,-0.639662,0.765705,-0.010939,-0.066397,1.529250,0.907689,-13.066573,-0.000234,0.000968,0.000245
1211.818586,-0.639664,0.765700,-0.010850,-0.066454,1.525797,0.907075,-13.045296,-0.000234,0.002033,0.000245
1211.839326,-0.639660,0.765668,-0.010639,-0.066890,1.536533,0.929539,-13.017447,-0.000234,0.000968,0.000245
1211.860704,-0.639653,0.765697,-0.011072,-0.066561,1.536748,0.881109,-13.069890,-0.000234,0.000968,-0.000819
1211.881366,-0.639647,0.765702,-0.011309,-0.066509,1.546085,0.890055,-13.094902,-0.000234,0.000968,-0.000819
1211.902567,-0.639674,0.765683,-0.010811,-0.066560,1.519457,0.923341,-13.066408,-0.000234,0.002033,0.000245
1211.923226,-0.639679,0.765667,-0.010902,-0.066680,1.538969,0.906901,-13.051970,-0.000234,0.000968,-0.001884
1211.944102,-0.639696,0.765700,-0.011230,-0.066087,1.518874,0.864004,-13.078037,-0.000234,0.000968,-0.001884
1211.965447,-0.639735,0.765720,-0.011016,-0.065502,1.490981,0.878022,-13.092649,-0.000234,0.000968,-0.000819
1211.986801,-0.639722,0.765686,-0.010890,-0.066052,1.528278,0.909948,-13.028723,-0.001298,0.003097,0.000245
1212.008129,-0.639745,0.765642,-0.010216,-0.066448,1.517694,0.950012,-13.103260,-0.001298,0.000968,0.000245
1212.028950,-0.639720,0.765640,-0.010800,-0.066610,1.552179,0.895506,-13.072387,-0.000234,0.000968,-0.001884
1212.050451,-0.639733,0.765681,-0.010926,-0.065991,1.505505,0.875974,-13.080203,-0.000234,0.002033,0.000245
1212.071212,-0.639733,0.765676,-0.010861,-0.066061,1.518644,0.899712,-13.049956,-0.001298,0.003097,0.000245
1212.092068,-0.639720,0.765632,-0.010802,-0.066697,1.548394,0.925094,-13.047714,-0.001298,0.000968,-0.000819
1212.113349,-0.639733,0.765624,-0.010873,-0.066655,1.536368,0.906037,-13.082879,-0.000234,0.000968,-0.001884
1212.134006,-0.639762,0.765626,-0.010807,-0.066364,1.513890,0.897396,-13.046451,-0.000234,0.000968,-0.001884
1212.155262,-0.639776,0.765609,-0.010496,-0.066475,1.519450,0.924577,-13.065276,0.000830,0.000968,0.000245
1212.175988,-0.639779,0.765590,-0.010424,-0.066683,1.530347,0.923692,-13.054190,-0.000234,-0.000096,-0.000819
1212.196844,-0.639830,0.765588,-0.010040,-0.066268,1.490550,0.920451,-13.082677,-0.000234,-0.000096,-0.001884
1212.218091,-0.639814,0.765628,-0.010870,-0.065830,1.527325,0.854067,-13.089183,-0.000234,0.002033,-0.001884
1212.238778,-0.639805,0.765633,-0.010998,-0.065846,1.526785,0.890957,-13.105083,-0.000234,0.002033,0.000245
1212.260065,-0.639825,0.765564,-0.010370,-0.066546,1.529819,0.955573,-13.076988,0.000830,0.000968,-0.000819
1212.280731,-0.639838,0.765570,-0.010534,-0.066321,1.527614,0.903265,-13.138836,-0.000234,-0.000096,-0.001884
1212.301996,-0.639836,0.765613,-0.011185,-0.065736,1.522508,0.848949,-13.099800,-0.000234,0.000968,-0.001884
1212.322693,-0.639857,0.765597,-0.010744,-0.065789,1.506211,0.911796,-13.091265,-0.001298,0.002033,0.000245
1212.343555,-0.639876,0.765528,-0.010104,-0.066509,1.528289,0.964267,-13.110661,-0.001298,0.002033,-0.000819
1212.364962,-0.639861,0.765535,-0.010625,-0.066486,1.540133,0.895351,-13.077531,-0.000234,-0.000096,-0.001884
1212.385735,-0.639887,0.765573,-0.010887,-0.065753,1.497390,0.862053,-13.060865,0.000830,-0.000096,-0.001884
1212.407353,-0.639904,0.765547,-0.010601,-0.065942,1.514669,0.914548,-13.079235,-0.000234,0.000968,-0.000819
1212.428232,-0.639920,0.765514,-0.010105,-0.066251,1.512974,0.941517,-13.105415,-0.001298,0.002033,0.000245
1212.449396,-0.639902,0.765490,-0.010285,-0.066672,1.542129,0.926496,-13.083595,-0.000234,0.000968,-0.000819
1212.471151,-0.639885,0.765491,-0.010621,-0.066767,1.549247,0.912188,-13.121892,-0.000234,-0.000096,-0.000819
1212.492105,-0.639896,0.765487,-0.010617,-0.066699,1.527954,0.913602,-13.070440,0.000830,0.002033,-0.000819
1212.513789,-0.639902,0.765440,-0.010309,-0.067241,1.542051,0.948940,-13.056107,-0.001298,0.002033,-0.000819
1212.534677,-0.639875,0.765439,-0.010796,-0.067430,1.569774,0.916463,-13.098843,0.000830,0.000968,-0.000819
1212.556321,-0.639912,0.765495,-0.011036,-0.066400,1.504325,0.860877,-13.103311,-0.000234,-0.000096,-0.001884
1212.577328,-0.639935,0.765518,-0.011049,-0.065910,1.510056,0.881204,-13.108770,-0.000234,0.002033,-0.000819
1212.598434,-0.639910,0.765445,-0.010950,-0.067005,1.568814,0.941562,-13.019275,-0.000234,0.000968,-0.000819
1212.620143,-0.639910,0.765426,-0.010942,-0.067225,1.554196,0.922944,-13.081847,-0.000234,0.000968,-0.000819
1212.641099,-0.639949,0.765462,-0.011177,-0.066390,1.515067,0.866911,-13.103220,0.000830,-0.000096,-0.002948
1212.662725,-0.639953,0.765487,-0.011457,-0.066013,1.528323,0.869639,-13.092215,-0.000234,0.002033,-0.000819
1212.683584,-0.639995,0.765441,-0.010549,-0.066297,1.505815,0.949315,-13.084635,-0.000234,0.002033,0.000245
1212.704774,-0.639983,0.765440,-0.010996,-0.066351,1.542639,0.889474,-13.072439,-0.000234,0.000968,-0.001884
1212.729658,-0.640026,0.765452,-0.010873,-0.065810,1.507514,0.889454,-13.115156,-0.000234,-0.000096,-0.001884
1212.751581,-0.639996,0.765435,-0.011111,-0.066268,1.548389,0.902286,-13.088246,-0.000234,0.002033,0.000245
1212.773313,-0.640017,0.765406,-0.010599,-0.066481,1.520459,0.931333,-13.082160,-0.000234,0.002033,0.000245
1212.794876,-0.640076,0.765360,-0.009800,-0.066568,1.497340,0.956615,-13.081681,-0.000234,0.000968,-0.001884
1212.816554,-0.640084,0.765417,-0.010277,-0.065758,1.495759,0.867781,-13.114587,-0.000234,0.000968,-0.000819
1212.837454,-0.640070,0.765425,-0.010326,-0.065786,1.513304,0.907507,-13.115764,-0.000234,0.002033,0.001309
1212.858513,-0.640051,0.765342,-0.010063,-0.066974,1.563094,0.975555,-13.095754,-0.000234,0.000968,-0.000819
1212.880247,-0.640034,0.765346,-0.010447,-0.067034,1.543650,0.913962,-13.058061,-0.000234,0.000968,-0.000819
1212.901822,-0.640070,0.765365,-0.010438,-0.066464,1.510937,0.903861,-13.116868,0.000830,-0.000096,-0.001884
1212.923412,-0.640046,0.765356,-0.010656,-0.066765,1.544746,0.916039,-13.069987,-0.000234,0.002033,0.000245
1212.944291,-0.640074,0.765316,-0.010131,-0.067033,1.527279,0.954973,-13.098412,-0.000234,0.000968,-0.000819
1212.965960,-0.640097,0.765286,-0.009910,-0.067184,1.530949,0.948933,-13.099208,-0.000234,0.000968,-0.001884
1212.986892,-0.640091,0.765337,-0.010667,-0.066545,1.530754,0.864700,-13.096663,-0.000234,0.000968,-0.001884
1213.008018,-0.640108,0.765346,-0.010649,-0.066278,1.514836,0.901351,-13.077456,-0.000234,0.000968,-0.000819
1213.029952,-0.640118,0.765332,-0.010248,-0.066417,1.514384,0.933562,-13.088397,0.000830,0.002033,0.001309
1213.050891,-0.640117,0.765339,-0.010435,-0.066314,1.520868,0.903999,-13.069063,-0.000234,0.000968,-0.000819
1213.072547,-0.640123,0.765389,-0.011047,-0.065572,1.505972,0.843829,-13.066891,-0.000234,0.000968,-0.001884
1213.093466,-0.640129,0.765407,-0.011088,-0.065294,1.509857,0.877807,-13.144235,-0.000234,0.002033,0.000245
1213.115033,-0.640119,0.765344,-0.010892,-0.066167,1.541192,0.925113,-13.046769,-0.000234,0.002033,-0.000819
1213.135934,-0.640163,0.765309,-0.010370,-0.066218,1.508299,0.931951,-13.102773,0.000830,0.000968,-0.001884
1213.157279,-0.640140,0.765348,-0.011264,-0.065846,1.540523,0.847681,-13.102702,-0.000234,0.000968,-0.001884
1213.178937,-0.640153,0.765321,-0.010861,-0.066102,1.521797,0.918005,-13.085085,-0.000234,0.000968,0.000245
1213.199858,-0.640137,0.765266,-0.010620,-0.066932,1.555100,0.948238,-13.081752,-0.000234,0.002033,0.000245
1213.221582,-0.640158,0.765287,-0.010817,-0.066456,1.523195,0.891017,-13.102831,-0.000234,0.000968,-0.001884
1213.242477,-0.640177,0.765322,-0.011132,-0.065812,1.508142,0.860540,-13.072308,-0.000234,0.000968,-0.001884
1213.264085,-0.640207,0.765327,-0.010746,-0.065527,1.492012,0.897534,-13.083985,-0.000234,0.000968,0.000245
1213.285090,-0.640210,0.765278,-0.010298,-0.066143,1.521544,0.940958,-13.082551,-0.001298,0.002033,0.000245
1213.306151,-0.640197,0.765272,-0.010694,-0.066266,1.538782,0.898494,-13.094333,-0.001298,0.000968,-0.001884
1213.327831,-0.640205,0.765303,-0.010970,-0.065799,1.510476,0.872904,-13.060909,0.000830,-0.000096,-0.000819
1213.348790,-0.640192,0.765283,-0.011114,-0.066126,1.540113,0.899058,-13.074136,-0.000234,0.000968,-0.000819
1213.370566,-0.640179,0.765227,-0.010837,-0.066933,1.552951,0.940475,-13.057740,-0.000234,0.002033,0.000245
1213.391520,-0.640217,0.765213,-0.010702,-0.066759,1.527788,0.915412,-13.091891,-0.000234,-0.000096,-0.002948
1213.413827,-0.640248,0.765256,-0.010917,-0.065930,1.500793,0.867512,-13.081172,-0.000234,-0.000096,-0.001884
1213.434809,-0.640255,0.765220,-0.010695,-0.066314,1.529077,0.922123,-13.067220,-0.000234,0.000968,-0.000819
1213.455918,-0.640245,0.765188,-0.010374,-0.066836,1.537113,0.944563,-13.083378,-0.001298,0.002033,0.001309
1213.477668,-0.640249,0.765203,-0.010721,-0.066562,1.535093,0.896855,-13.109815,-0.000234,-0.000096,-0.001884
1213.498589,-0.640254,0.765227,-0.010962,-0.066194,1.522247,0.883256,-13.078779,-0.000234,-0.000096,-0.000819
1213.520279,-0.640268,0.765231,-0.010824,-0.066042,1.512425,0.901313,-13.078722,0.000830,0.003097,0.000245
1213.541434,-0.640261,0.765198,-0.010644,-0.066515,1.531626,0.925293,-13.039975,-0.000234,0.002033,0.000245
1213.562445,-0.640295,0.765183,-0.010396,-0.066400,1.511022,0.919419,-13.077199,-0.000234,0.002033,-0.001884
1213.584079,-0.640263,0.765217,-0.011364,-0.066155,1.552572,0.852911,-13.088288,-0.000234,0.000968,-0.001884
1213.605018,-0.640306,0.765209,-0.010886,-0.065911,1.501417,0.906778,-13.098324,-0.000234,0.000968,-0.000819
1213.626725,-0.640298,0.765156,-0.010739,-0.066629,1.550332,0.934469,-13.100292,-0.000234,0.002033,-0.000819
1213.647677,-0.640257,0.765145,-0.011135,-0.067084,1.570014,0.911176,-13.072487,-0.000234,0.000968,0.000245
1213.669381,-0.640309,0.765176,-0.010851,-0.066277,1.492024,0.891255,-13.093201,-0.000234,0.000968,-0.000819
1213.690326,-0.640306,0.765182,-0.010896,-0.066222,1.522240,0.897148,-13.055657,-0.001298,0.002033,0.000245
1213.711345,-0.640326,0.765140,-0.010300,-0.066613,1.516885,0.946653,-13.050912,-0.000234,0.002033,0.000245
1213.732982,-0.640307,0.765121,-0.010531,-0.066973,1.551710,0.925113,-13.090335,-0.000234,0.000968,-0.000819
1213.753908,-0.640300,0.765150,-0.011122,-0.066619,1.543924,0.875914,-13.083663,-0.000234,-0.000096,-0.001884
1213.775678,-0.640324,0.765171,-0.011112,-0.066143,1.518319,0.888172,-13.118299,0.000830,0.000968,-0.000819
1213.796614,-0.640321,0.765129,-0.010820,-0.066711,1.544423,0.934887,-13.085078,-0.000234,0.002033,0.000245
1213.818258,-0.640317,0.765103,-0.010963,-0.067008,1.550958,0.914405,-13.042406,-0.000234,-0.000096,-0.001884
1213.839203,-0.640352,0.765134,-0.011047,-0.066307,1.511332,0.878999,-13.101508,-0.000234,0.000968,-0.001884
1213.860306,-0.640386,0.765101,-0.010321,-0.066481,1.508239,0.945612,-13.087950,-0.001298,0.002033,0.000245
1213.882073,-0.640408,0.765101,-0.010020,-0.066307,1.502372,0.927228,-13.099200,-0.000234,0.002033,0.000245
1213.902999,-0.640414,0.765083,-0.009938,-0.066477,1.516930,0.931657,-13.070423,-0.000234,0.000968,-0.000819
1213.924457,-0.640400,0.765089,-0.010460,-0.066461,1.534188,0.899411,-13.061293,0.000830,-0.000096,-0.001884
1213.945284,-0.640404,0.765102,-0.010659,-0.066239,1.520841,0.896286,-13.086527,-0.000234,0.002033,-0.000819
1213.966801,-0.640390,0.765082,-0.010665,-0.066604,1.535265,0.919121,-13.045514,-0.000234,0.002033,0.000245
1213.987698,-0.640401,0.765093,-0.010876,-0.066333,1.523468,0.889669,-13.064780,-0.001298,0.000968,-0.001884
1214.008776,-0.640428,0.765115,-0.010996,-0.065795,1.506623,0.875613,-13.093206,-0.000234,0.000968,-0.001884
1214.030560,-0.640404,0.765147,-0.011674,-0.065548,1.534683,0.848397,-13.076816,-0.000234,0.000968,-0.000819
1214.051673,-0.640387,0.765087,-0.011253,-0.066485,1.553039,0.935796,-13.052782,-0.000234,0.000968,0.001309
1214.073487,-0.640393,0.765051,-0.011044,-0.066870,1.549330,0.925208,-13.086858,-0.000234,-0.000096,-0.000819
1214.094444,-0.640376,0.765069,-0.011665,-0.066718,1.565384,0.873959,-13.111346,-0.000234,-0.000096,-0.001884
1214.116207,-0.640373,0.765091,-0.011989,-0.066435,1.552278,0.869354,-13.103271,-0.000234,-0.000096,-0.000819
1214.137124,-0.640417,0.765077,-0.011319,-0.066296,1.511048,0.913207,-13.084044,-0.000234,0.003097,0.000245
1214.158160,-0.640421,0.765035,-0.011083,-0.066774,1.552679,0.929166,-13.117783,-0.000234,0.002033,-0.000819
1214.179802,-0.640436,0.765045,-0.011256,-0.066492,1.533094,0.887215,-13.066723,-0.000234,-0.000096,-0.001884
1214.200741,-0.640448,0.765084,-0.011531,-0.065872,1.517669,0.857657,-13.089666,-0.000234,0.000968,-0.000819
1214.221810,-0.640477,0.765036,-0.010769,-0.066275,1.516761,0.941048,-13.079154,-0.000234,0.002033,0.000245
1214.243448,-0.640472,0.765014,-0.010821,-0.066579,1.541066,0.915702,-13.081964,-0.000234,0.002033,-0.000819
1214.264338,-0.640492,0.765029,-0.011117,-0.066162,1.520166,0.874521,-13.046413,-0.000234,-0.000096,-0.002948
1214.286017,-0.640495,0.765021,-0.011149,-0.066213,1.533975,0.898485,-13.094494,-0.000234,0.000968,-0.000819
1214.307078,-0.640515,0.765016,-0.010819,-0.066141,1.513435,0.910607,-13.090971,-0.001298,0.002033,0.000245
1214.328723,-0.640545,0.764978,-0.010257,-0.066375,1.515332,0.941323,-13.112449,-0.001298,0.000968,-0.000819
1214.349653,-0.640546,0.765020,-0.010860,-0.065778,1.517450,0.859236,-13.119417,-0.000234,0.000968,-0.001884
1214.370691,-0.640514,0.765027,-0.011458,-0.065906,1.546498,0.870334,-13.067899,-0.000234,0.000968,-0.000819
1214.392448,-0.640520,0.764964,-0.010893,-0.066675,1.544271,0.946883,-13.086802,-0.000234,0.002033,0.000245
1214.413806,-0.640542,0.764945,-0.010590,-0.066731,1.527606,0.928544,-13.096041,-0.000234,0.000968,-0.000819
1214.435082,-0.640578,0.764933,-0.010505,-0.066531,1.517177,0.912478,-13.067189,-0.000234,-0.000096,-0.002948
1214.455737,-0.640560,0.764967,-0.011125,-0.066208,1.538993,0.870301,-13.112066,-0.000234,0.002033,-0.000819
1214.477136,-0.640585,0.764925,-0.010627,-0.066544,1.521874,0.933530,-13.046601,-0.000234,0.000968,-0.000819
1214.497822,-0.640621,0.764875,-0.010076,-0.066862,1.524734,0.958147,-13.114069,-0.000234,0.000968,-0.001884
1214.518674,-0.640607,0.764917,-0.010863,-0.066387,1.535658,0.863870,-13.083405,-0.000234,0.000968,-0.001884
1214.539898,-0.640616,0.764921,-0.011080,-0.066219,1.531681,0.890094,-13.093011,0.000830,-0.000096,-0.001884
1214.560985,-0.640648,0.764867,-0.010395,-0.066643,1.523643,0.953565,-13.105593,-0.001298,0.002033,-0.000819
1214.582583,-0.640639,0.764838,-0.010256,-0.067073,1.541897,0.944472,-13.086775,-0.000234,0.000968,0.000245
1214.603354,-0.640648,0.764846,-0.010487,-0.066859,1.527014,0.907143,-13.042884,-0.000234,0.000968,-0.001884
1214.624190,-0.640675,0.764891,-0.010779,-0.066046,1.500709,0.867149,-13.094215,-0.000234,0.000968,-0.001884
1214.645486,-0.640678,0.764870,-0.010540,-0.066295,1.521784,0.923015,-13.078186,-0.001298,0.002033,0.000245
1214.666323,-0.640683,0.764837,-0.010351,-0.066651,1.532363,0.935935,-13.090275,-0.000234,0.000968,-0.000819
1214.687534,-0.640679,0.764852,-0.010646,-0.066476,1.528105,0.899069,-13.073351,-0.000234,0.000968,-0.000819
1214.708228,-0.640672,0.764865,-0.011113,-0.066319,1.536839,0.880236,-13.057979,-0.000234,-0.000096,-0.001884
1214.729521,-0.640691,0.764850,-0.010744,-0.066368,1.517067,0.919596,-13.071070,-0.000234,0.002033,0.000245
1214.750281,-0.640711,0.764798,-0.010235,-0.066846,1.525209,0.952616,-13.053272,-0.000234,0.002033,-0.000819
1214.771233,-0.640698,0.764847,-0.010910,-0.066304,1.532969,0.867685,-13.119273,0.000830,0.000968,-0.000819
1214.792638,-0.640708,0.764859,-0.011034,-0.066047,1.518675,0.887188,-13.067204,0.000830,0.000968,-0.000819
1214.813687,-0.640705,0.764844,-0.010934,-0.066260,1.529191,0.909963,-13.071424,-0.000234,0.002033,0.000245
1214.834861,-0.640720,0.764838,-0.010682,-0.066232,1.511298,0.911760,-13.049549,-0.000234,0.002033,0.000245
1214.855573,-0.640733,0.764819,-0.010817,-0.066306,1.531613,0.903722,-13.079375,-0.000234,0.000968,-0.002948
1214.876800,-0.640744,0.764847,-0.011181,-0.065814,1.518686,0.866984,-13.100728,-0.000234,0.000968,-0.001884
1214.897477,-0.640738,0.764854,-0.011298,-0.065770,1.523494,0.882187,-13.073942,-0.000234,0.002033,0.000245
1214.918268,-0.640784,0.764797,-0.010395,-0.066135,1.504435,0.954864,-13.101545,-0.000234,0.000968,-0.000819
1214.939539,-0.640781,0.764800,-0.010764,-0.066071,1.526989,0.890581,-13.075385,-0.000234,0.000968,-0.001884
1214.960591,-0.640796,0.764829,-0.010913,-0.065563,1.503010,0.874304,-13.096830,-0.000234,-0.000096,-0.000819
1214.981837,-0.640783,0.764787,-0.010904,-0.066173,1.539978,0.916195,-13.064218,0.000830,0.000968,-0.000819
1215.002494,-0.640786,0.764751,-0.010579,-0.066614,1.534699,0.938180,-13.096232,-0.000234,0.002033,0.000245
1215.023326,-0.640817,0.764715,-0.010050,-0.066809,1.517711,0.952615,-13.096253,-0.000234,0.000968,-0.000819
1215.044658,-0.640781,0.764758,-0.011126,-0.066489,1.557364,0.854123,-13.088182,-0.000234,0.000968,-0.001884
1215.065337,-0.640791,0.764738,-0.010788,-0.066680,1.532412,0.928553,-13.095881,-0.001298,0.000968,0.000245
1215.086695,-0.640829,0.764702,-0.009988,-0.066860,1.509222,0.962387,-13.091036,-0.001298,0.000968,0.000245
1215.107433,-0.640829,0.764736,-0.010400,-0.066401,1.519584,0.892246,-13.101820,0.000830,0.000968,-0.000819
1215.128726,-0.640848,0.764765,-0.010845,-0.065809,1.512596,0.867878,-13.111654,-0.000234,0.000968,-0.002948
1215.149387,-0.640869,0.764747,-0.010564,-0.065863,1.508585,0.914207,-13.091293,-0.000234,0.000968,-0.000819
1215.170206,-0.640878,0.764685,-0.010110,-0.066553,1.531936,0.959397,-13.112696,-0.000234,0.002033,-0.000819
1215.191486,-0.640858,0.764673,-0.010409,-0.066847,1.549178,0.924547,-13.110573,-0.000234,0.000968,-0.000819
1215.212948,-0.640851,0.764715,-0.011105,-0.066312,1.532166,0.861822,-13.070374,-0.000234,-0.000096,-0.001884
1215.234477,-0.640868,0.764720,-0.011229,-0.066069,1.521220,0.882745,-13.053865,-0.000234,0.000968,-0.001884
1215.255126,-0.640873,0.764665,-0.010865,-0.066714,1.545605,0.939866,-13.079324,-0.000234,0.000968,-0.000819
1215.275939,-0.640891,0.764672,-0.010986,-0.066452,1.530294,0.896879,-13.108789,-0.000234,0.000968,-0.001884
1215.297275,-0.640911,0.764690,-0.011179,-0.066000,1.518602,0.878008,-13.094099,0.000830,0.000968,-0.001884
1215.317919,-0.640954,0.764711,-0.010761,-0.065416,1.475156,0.891025,-13.100877,-0.000234,0.002033,0.000245
1215.339176,-0.640934,0.764651,-0.010537,-0.066339,1.545448,0.944248,-13.094955,-0.000234,0.002033,0.000245
1215.364783,-0.640927,0.764657,-0.010865,-0.066286,1.531626,0.898712,-13.086274,0.000830,0.000968,-0.000819
1215.386287,-0.640914,0.764679,-0.011326,-0.066091,1.535550,0.874795,-13.080333,-0.000234,0.000968,-0.000819
1215.406992,-0.640917,0.764693,-0.011209,-0.065914,1.517279,0.891402,-13.088803,-0.000234,0.000968,0.001309
1215.428282,-0.640948,0.764660,-0.010525,-0.066113,1.507115,0.935822,-13.093488,-0.000234,0.000968,0.000245
1215.449018,-0.640963,0.764622,-0.010333,-0.066430,1.527510,0.933190,-13.102185,-0.000234,0.000968,-0.001884
1215.469833,-0.640969,0.764659,-0.010818,-0.065867,1.513918,0.867141,-13.094960,-0.000234,-0.000096,-0.001884
1215.491186,-0.640973,0.764682,-0.010911,-0.065538,1.503127,0.879876,-13.069773,-0.000234,0.000968,0.000245
1215.511845,-0.640950,0.764606,-0.010612,-0.066692,1.559853,0.960672,-13.067902,-0.000234,0.002033,0.000245
1215.533031,-0.640947,0.764592,-0.010848,-0.066845,1.546059,0.911462,-13.061431,0.000830,-0.000096,-0.001884
1215.553680,-0.640984,0.764628,-0.010941,-0.066057,1.502798,0.875916,-13.125395,0.000830,-0.000096,-0.001884
1215.574760,-0.640941,0.764647,-0.011603,-0.066144,1.557130,0.870830,-13.093679,-0.000234,0.000968,0.000245
1215.595995,-0.640951,0.764624,-0.011274,-0.066373,1.536107,0.915032,-13.105840,-0.000234,0.002033,0.000245
1215.617065,-0.640946,0.764570,-0.011066,-0.067065,1.556704,0.934798,-13.045493,-0.000234,0.000968,-0.000819
1215.638269,-0.640960,0.764599,-0.011404,-0.066549,1.535468,0.875700,-13.091059,0.000830,-0.000096,-0.001884
1215.658902,-0.640984,0.764623,-0.011274,-0.066059,1.510127,0.885308,-13.091145,0.000830,0.000968,0.000245
1215.680126,-0.640991,0.764580,-0.010832,-0.066571,1.540487,0.939771,-13.125783,-0.000234,0.002033,0.000245
1215.701353,-0.641022,0.764566,-0.010639,-0.066458,1.514820,0.913941,-13.057837,-0.000234,0.002033,-0.001884
1215.722223,-0.641023,0.764569,-0.010945,-0.066361,1.532983,0.893064,-13.072921,-0.000234,0.000968,-0.001884
1215.743364,-0.641000,0.764585,-0.011325,-0.066344,1.543838,0.885669,-13.079351,-0.000234,0.000968,0.000245
1215.764142,-0.641024,0.764574,-0.010901,-0.066301,1.516876,0.917500,-13.103031,-0.001298,0.002033,0.000245
1215.785007,-0.641051,0.764556,-0.010534,-0.066312,1.507622,0.920305,-13.045304,-0.001298,0.002033,-0.000819
1215.806303,-0.641096,0.764516,-0.010126,-0.066398,1.505045,0.933465,-13.048348,-0.000234,0.000968,-0.002948
1215.827071,-0.641125,0.764536,-0.010190,-0.065879,1.497626,0.899633,-13.138491,-0.000234,0.000968,-0.001884
1215.848305,-0.641105,0.764483,-0.010185,-0.066684,1.545525,0.945847,-13.080779,-0.000234,0.002033,-0.000819
1215.869204,-0.641088,0.764436,-0.010003,-0.067406,1.546797,0.962610,-13.041124,-0.000234,0.000968,0.000245
1215.890630,-0.641109,0.764479,-0.010362,-0.066666,1.510220,0.888243,-13.072281,-0.000234,-0.000096,-0.001884
1215.911281,-0.641119,0.764493,-0.010467,-0.066392,1.517090,0.905770,-13.091821,-0.000234,0.000968,-0.000819
1215.932383,-0.641113,0.764479,-0.010395,-0.066618,1.532314,0.929392,-13.108978,-0.001298,0.002033,0.000245
1215.953574,-0.641120,0.764495,-0.010399,-0.066368,1.512293,0.909600,-13.083842,-0.001298,0.002033,0.000245
1215.974350,-0.641099,0.764493,-0.010949,-0.066501,1.548604,0.894362,-13.070082,0.000830,0.000968,-0.001884
1215.996061,-0.641121,0.764519,-0.011022,-0.065978,1.511214,0.883546,-13.111209,-0.000234,0.002033,-0.000819
1216.016684,-0.641118,0.764498,-0.011057,-0.066239,1.529589,0.902832,-13.024802,0.000830,0.002033,-0.000819
1216.037716,-0.641135,0.764441,-0.010535,-0.066824,1.535863,0.951942,-13.077812,-0.000234,0.000968,-0.000819
1216.058967,-0.641125,0.764476,-0.011058,-0.066422,1.535393,0.877907,-13.098281,-0.000234,0.000968,-0.000819
1216.080794,-0.641114,0.764482,-0.011575,-0.066376,1.549986,0.877426,-13.072845,0.000830,0.000968,-0.001884
1216.102174,-0.641173,0.764464,-0.010648,-0.066176,1.492387,0.938246,-13.135632,-0.000234,0.000968,0.000245
1216.122907,-0.641128,0.764436,-0.010963,-0.066882,1.565296,0.919144,-13.045698,-0.001298,0.000968,0.000245
1216.144352,-0.641155,0.764443,-0.010978,-0.066534,1.522172,0.898119,-13.064011,0.000830,-0.000096,-0.001884
1216.165502,-0.641165,0.764439,-0.011107,-0.066461,1.534119,0.897844,-13.074282,-0.000234,0.000968,-0.001884
1216.186427,-0.641197,0.764412,-0.010654,-0.066538,1.519158,0.930901,-13.097615,-0.000234,0.003097,-0.000819
1216.207997,-0.641179,0.764368,-0.010677,-0.067209,1.567951,0.944138,-13.142863,-0.001298,0.002033,-0.000819
1216.228884,-0.641222,0.764382,-0.010510,-0.066656,1.507397,0.910464,-13.095914,-0.000234,-0.000096,-0.001884
1216.250512,-0.641205,0.764432,-0.011228,-0.066140,1.534438,0.858726,-13.095087,-0.000234,-0.000096,-0.000819
1216.271230,-0.641215,0.764451,-0.011384,-0.065789,1.517572,0.872421,-13.078455,-0.000234,0.000968,-0.000819
1216.294640,-0.641194,0.764396,-0.011195,-0.066665,1.561075,0.930385,-13.117556,-0.001298,0.002033,0.000245
1216.316060,-0.641219,0.764396,-0.011159,-0.066434,1.530288,0.899384,-13.105340,-0.000234,-0.000096,-0.001884
1216.337335,-0.641246,0.764423,-0.011308,-0.065820,1.506899,0.866684,-13.067874,-0.000234,0.000968,-0.001884
1216.358689,-0.641264,0.764423,-0.011085,-0.065690,1.506558,0.894316,-13.070299,0.000830,0.002033,0.000245
1216.381045,-0.641300,0.764372,-0.010359,-0.066045,1.503626,0.938849,-13.071187,-0.001298,0.002033,-0.000819
1216.402204,-0.641257,0.764378,-0.011101,-0.066282,1.554720,0.884718,-13.070637,0.000830,0.000968,-0.000819
1216.422887,-0.641268,0.764415,-0.011368,-0.065695,1.513847,0.861767,-13.114902,-0.000234,0.000968,-0.000819
1216.444109,-0.641277,0.764373,-0.010913,-0.066178,1.526540,0.927868,-13.077055,-0.000234,0.002033,0.000245
1216.464774,-0.641256,0.764320,-0.010922,-0.066975,1.565999,0.937235,-13.088021,-0.000234,0.002033,-0.000819
1216.485550,-0.641251,0.764284,-0.010865,-0.067454,1.556773,0.936365,-13.032504,0.000830,0.000968,-0.000819
1216.508750,-0.641269,0.764319,-0.011573,-0.066761,1.540811,0.859055,-13.040288,0.000830,-0.000096,-0.004012
1216.529482,-0.641267,0.764399,-0.012142,-0.065749,1.512339,0.807425,-13.076931,-0.001298,0.000968,0.000245
1216.550688,-0.641300,0.764284,-0.010958,-0.066954,1.557362,1.028482,-13.141026,-0.003427,0.003097,-0.000819
1216.571383,-0.641347,0.764196,-0.010468,-0.067603,1.555943,0.970730,-13.095779,-0.000234,0.000968,-0.005076
1216.593911,-0.641346,0.764242,-0.011330,-0.066943,1.549064,0.862184,-13.057956,0.002959,-0.002224,-0.002948
1216.614668,-0.641369,0.764315,-0.011570,-0.065841,1.494927,0.837741,-13.112094,0.001894,-0.001160,0.000245
1216.635439,-0.641389,0.764343,-0.010994,-0.065414,1.478756,0.896075,-13.092672,-0.001298,0.002033,0.003437
1216.658017,-0.641363,0.764298,-0.010874,-0.066208,1.539760,0.920312,-13.089334,-0.007684,0.006290,0.000245
1216.678834,-0.641347,0.764271,-0.010614,-0.066720,1.531546,0.931274,-13.041430,-0.006619,0.005225,0.001309
1216.700613,-0.641298,0.764200,-0.010499,-0.068013,1.593175,0.982121,-13.077236,-0.000234,0.002033,0.001309
1216.721384,-0.641326,0.764148,-0.009761,-0.068437,1.546069,1.003750,-13.077397,0.002959,-0.001160,0.000245
1216.742557,-0.641356,0.764206,-0.010474,-0.067393,1.520334,0.863861,-13.039999,0.002959,-0.002224,-0.004012
1216.763327,-0.641390,0.764303,-0.010906,-0.065883,1.442850,0.786648,-13.085454,0.000830,-0.000096,-0.000819
1216.784083,-0.641364,0.764366,-0.011340,-0.065328,1.504673,0.845935,-13.077710,-0.003427,0.004161,0.002373
1216.805236,-0.641365,0.764261,-0.010487,-0.066683,1.555433,1.007753,-13.106936,-0.003427,0.005225,0.000245
1216.825880,-0.641362,0.764186,-0.010263,-0.067600,1.563419,0.971901,-13.054037,0.000830,0.000968,-0.001884
1216.847518,-0.641360,0.764225,-0.011058,-0.067051,1.546689,0.872430,-13.035938,0.002959,-0.003288,-0.002948
1216.868278,-0.641396,0.764260,-0.011204,-0.066269,1.509199,0.873840,-13.070489,0.005087,-0.002224,-0.001884
1216.889057,-0.641445,0.764224,-0.010594,-0.066321,1.507250,0.932610,-13.079098,-0.000234,0.000968,-0.001884
1216.910694,-0.641467,0.764207,-0.010482,-0.066315,1.513543,0.914877,-13.067417,-0.002363,0.004161,-0.001884
1216.932706,-0.641432,0.764223,-0.011353,-0.066335,1.558310,0.872002,-13.094879,-0.001298,0.002033,-0.001884
1216.954052,-0.641417,0.764244,-0.011691,-0.066167,1.538119,0.872989,-13.058801,0.000830,0.000968,0.000245
1216.974888,-0.641467,0.764190,-0.010666,-0.066484,1.506918,0.962813,-13.075702,0.002959,-0.000096,0.000245
1216.996335,-0.641501,0.764169,-0.010366,-0.066446,1.512167,0.926770,-13.072739,0.000830,-0.000096,-0.001884
1217.017098,-0.641472,0.764211,-0.011510,-0.066059,1.556413,0.828630,-13.095391,-0.001298,0.002033,-0.002948
1217.038123,-0.641468,0.764227,-0.011649,-0.065876,1.527276,0.874105,-13.061587,0.000830,-0.000096,0.000245
1217.059475,-0.641510,0.764177,-0.010857,-0.066183,1.512066,0.936459,-13.070799,-0.000234,-0.000096,-0.000819
1217.080257,-0.641548,0.764135,-0.010175,-0.066409,1.503563,0.948703,-13.063318,-0.000234,0.000968,-0.000819
1217.101907,-0.641523,0.764191,-0.011217,-0.065838,1.538188,0.834049,-13.116419,-0.001298,0.000968,-0.001884
1217.122575,-0.641523,0.764186,-0.011147,-0.065908,1.524348,0.898401,-13.097186,-0.001298,0.002033,0.000245
1217.143962,-0.641511,0.764106,-0.010500,-0.067047,1.552481,0.981470,-13.056015,-0.000234,0.002033,0.001309
1217.164671,-0.641558,0.764058,-0.009859,-0.067243,1.515295,0.969008,-13.069762,0.000830,0.002033,-0.001884
1217.185481,-0.641547,0.764090,-0.010690,-0.066856,1.542898,0.877941,-13.054114,0.000830,-0.000096,-0.002948
1217.206873,-0.641567,0.764144,-0.010812,-0.066021,1.498053,0.876172,-13.116070,-0.000234,-0.000096,0.000245
1217.227540,-0.641608,0.764115,-0.010176,-0.066060,1.495063,0.938172,-13.095182,-0.001298,0.000968,-0.000819
1217.248873,-0.641618,0.764112,-0.010488,-0.065941,1.519473,0.898094,-13.108018,-0.000234,0.000968,-0.002948
1217.270489,-0.641610,0.764109,-0.010887,-0.065997,1.529469,0.890916,-13.063447,0.000830,-0.000096,-0.001884
1217.291692,-0.641592,0.764122,-0.011381,-0.065931,1.537901,0.875837,-13.086235,0.001894,0.000968,-0.000819
1217.313912,-0.641590,0.764090,-0.011334,-0.066341,1.543563,0.908522,-13.080375,0.000830,0.002033,-0.000819
1217.334554,-0.641638,0.764051,-0.010525,-0.066449,1.504604,0.945473,-13.092814,-0.002363,0.002033,-0.000819
1217.355628,-0.641626,0.764037,-0.010714,-0.066702,1.543402,0.917947,-13.087921,-0.000234,0.002033,-0.000819
1217.376494,-0.641644,0.764035,-0.010629,-0.066567,1.525197,0.918388,-13.114662,0.000830,0.000968,-0.000819
1217.397365,-0.641620,0.764024,-0.011005,-0.066865,1.559094,0.911962,-13.087130,0.001894,-0.000096,-0.000819
1217.418500,-0.641640,0.764030,-0.011090,-0.066574,1.529290,0.897736,-13.078000,0.000830,-0.000096,-0.001884
1217.439230,-0.641669,0.764053,-0.011331,-0.065998,1.514077,0.866566,-13.072377,-0.001298,0.000968,-0.002948
1217.460337,-0.641697,0.764066,-0.011035,-0.065625,1.497896,0.893209,-13.109709,-0.000234,0.002033,0.000245
1217.481539,-0.641668,0.764022,-0.011044,-0.066412,1.555246,0.924823,-13.100887,-0.001298,0.003097,0.000245
1217.502903,-0.641641,0.763982,-0.011046,-0.067125,1.564962,0.932884,-13.071245,-0.001298,0.000968,0.000245
1217.524732,-0.641661,0.763995,-0.011361,-0.066733,1.542479,0.887510,-13.099657,0.000830,-0.000096,-0.002948
1217.545922,-0.641662,0.764030,-0.011760,-0.066247,1.534524,0.862897,-13.075091,0.000830,0.000968,-0.000819
1217.567271,-0.641688,0.763979,-0.011037,-0.066714,1.535693,0.947408,-13.110852,-0.000234,0.002033,0.000245
1217.588652,-0.641697,0.763993,-0.011134,-0.066445,1.528102,0.893993,-13.082621,-0.001298,0.000968,-0.000819
1217.613712,-0.641688,0.764058,-0.011886,-0.065662,1.522918,0.835540,-13.062395,-0.001298,0.002033,-0.000819
1217.635134,-0.641680,0.764064,-0.011812,-0.065676,1.527020,0.878057,-13.092633,-0.003427,0.004161,0.001309
1217.656662,-0.641596,0.764222,-0.013028,-0.064416,1.501996,0.667843,-13.072268,-0.001298,0.003097,0.006630
1217.677585,-0.641549,0.764221,-0.012075,-0.065082,1.521211,0.928116,-13.154397,0.002959,0.005225,0.010887
1217.699976,-0.641644,0.764020,-0.010601,-0.066738,1.543784,1.126885,-13.023591,-0.010876,0.010546,-0.008269
1217.722191,-0.641638,0.763881,-0.009615,-0.068507,1.602563,1.130372,-13.030089,-0.000234,0.004161,0.000245
1217.743062,-0.641558,0.763856,-0.010708,-0.069378,1.667934,0.953030,-13.086502,0.005087,-0.005417,-0.001884
1217.766561,-0.641681,0.763904,-0.010795,-0.067673,1.495763,0.875394,-13.100681,0.010408,-0.012866,-0.007205
1217.787923,-0.641836,0.763922,-0.010665,-0.065996,1.421628,0.841377,-13.108771,0.010408,-0.008610,-0.010397
1217.809545,-0.641814,0.763971,-0.011333,-0.065542,1.519067,0.842056,-13.087739,-0.009812,0.005225,-0.000819
1217.830384,-0.641739,0.763984,-0.012556,-0.065891,1.594012,0.818834,-13.059277,-0.010876,0.006290,-0.001884
1217.852279,-0.641775,0.763918,-0.012138,-0.066386,1.552186,0.906926,-13.051529,0.004023,-0.002224,-0.002948
1217.873777,-0.641849,0.763867,-0.011318,-0.066402,1.518047,0.930026,-13.085744,0.005087,-0.003288,-0.002948
1217.894528,-0.641819,0.763991,-0.012435,-0.065042,1.488983,0.666173,-13.045329,0.000830,-0.001160,0.001309
1217.916358,-0.641863,0.763949,-0.011015,-0.065363,1.465051,0.957215,-13.059048,-0.002363,0.005225,0.003437
1217.937261,-0.641831,0.763893,-0.010884,-0.066348,1.548200,0.930579,-13.066956,-0.008748,0.007354,0.000245
1217.959287,-0.641783,0.763792,-0.010724,-0.067981,1.606619,0.994525,-13.021549,-0.000234,0.004161,0.000245
1217.980738,-0.641793,0.763781,-0.010665,-0.068021,1.554237,0.942110,-13.042339,0.001894,-0.001160,-0.000819
1218.001860,-0.641832,0.763832,-0.010723,-0.067065,1.507752,0.894285,-13.071445,0.004023,-0.003288,-0.000819
1218.023310,-0.641865,0.763875,-0.010797,-0.066238,1.501542,0.885801,-13.116380,0.002959,-0.000096,-0.000819
1218.043981,-0.641848,0.763941,-0.011599,-0.065504,1.512418,0.812831,-13.055803,-0.005555,0.005225,-0.000819
1218.065362,-0.641809,0.763906,-0.011301,-0.066334,1.548152,0.926574,-13.081023,-0.003427,0.005225,0.003437
1218.086663,-0.641787,0.763816,-0.010727,-0.067671,1.581054,0.998099,-13.065294,-0.000234,0.003097,0.001309
1218.108544,-0.641818,0.763757,-0.010043,-0.068142,1.541783,0.984483,-13.033954,0.000830,-0.000096,-0.000819
1218.129514,-0.641874,0.763751,-0.009760,-0.067729,1.516639,0.953175,-13.076136,0.001894,-0.001160,-0.002948
1218.150665,-0.641892,0.763828,-0.010617,-0.066547,1.498041,0.820583,-13.036450,0.001894,-0.000096,-0.002948
1218.172533,-0.641892,0.763863,-0.010860,-0.066104,1.516075,0.887593,-13.095796,0.000830,0.000968,0.000245
1218.193595,-0.641912,0.763830,-0.010652,-0.066324,1.525238,0.923629,-13.099463,-0.001298,0.002033,-0.001884
1218.215669,-0.641888,0.763880,-0.011618,-0.065809,1.537290,0.834100,-13.071346,-0.001298,0.000968,-0.001884
1218.236664,-0.641860,0.763836,-0.011604,-0.066602,1.567500,0.917020,-13.078765,-0.001298,0.000968,0.000245
1218.259169,-0.641897,0.763825,-0.011186,-0.066444,1.516178,0.908292,-13.044485,-0.000234,0.000968,-0.000819
1218.279945,-0.641901,0.763868,-0.011321,-0.065889,1.511466,0.874518,-13.089435,0.002959,0.000968,0.001309
1218.300961,-0.641907,0.763859,-0.011095,-0.065974,1.519529,0.903402,-13.090447,-0.004491,0.003097,0.000245
1218.322403,-0.641935,0.763798,-0.010086,-0.066562,1.505536,0.978480,-13.075256,-0.001298,0.004161,0.001309
1218.363813,-0.641863,0.763687,-0.010459,-0.068449,1.571966,0.958586,-13.056722,0.000830,0.002033,-0.000819
1218.384586,-0.641886,0.763766,-0.010895,-0.067266,1.511604,0.862457,-13.090082,0.000830,-0.000096,-0.000819
1218.406170,-0.641867,0.763827,-0.011758,-0.066614,1.552507,0.845033,-13.111680,0.000830,0.002033,-0.000819
1218.426960,-0.641827,0.763865,-0.012336,-0.066459,1.563365,0.856639,-13.084532,-0.002363,0.003097,0.001309
1218.447880,-0.641840,0.763780,-0.011522,-0.067444,1.567008,0.971841,-13.056289,-0.001298,0.003097,0.000245
1218.469365,-0.641856,0.763721,-0.011157,-0.068016,1.571955,0.953478,-13.067178,-0.001298,0.000968,-0.001884
1218.490166,-0.641877,0.763721,-0.011180,-0.067815,1.554368,0.919897,-13.061527,-0.000234,0.000968,-0.001884
1218.511541,-0.641886,0.763693,-0.011008,-0.068076,1.571771,0.948877,-13.102589,0.001894,-0.001160,-0.000819
1218.532302,-0.641918,0.763786,-0.011603,-0.066616,1.488441,0.787705,-13.092286,0.002959,-0.002224,-0.001884
1218.553503,-0.641979,0.763801,-0.011236,-0.065912,1.488537,0.885433,-13.085938,-0.000234,0.000968,-0.001884
1218.575208,-0.641959,0.763746,-0.011007,-0.066783,1.558571,0.940069,-13.115696,-0.004491,0.005225,0.000245
1218.596215,-0.641908,0.763749,-0.011640,-0.067132,1.583260,0.896139,-13.093929,-0.001298,0.002033,0.000245
1218.617704,-0.641957,0.763778,-0.011360,-0.066366,1.504083,0.887669,-13.092639,0.000830,-0.001160,-0.000819
1218.638980,-0.641996,0.763747,-0.010795,-0.066439,1.514595,0.930681,-13.062149,0.002959,-0.001160,-0.000819
1218.661552,-0.642013,0.763670,-0.010485,-0.067213,1.551364,0.956519,-13.086993,-0.000234,0.002033,-0.002948
1218.683045,-0.642026,0.763703,-0.011339,-0.066574,1.542935,0.850256,-13.096801,-0.002363,0.002033,-0.005076
1218.703938,-0.642051,0.763728,-0.011039,-0.066091,1.507293,0.902420,-13.125235,0.002959,-0.002224,0.001309
1218.727932,-0.642078,0.763732,-0.010852,-0.065812,1.506348,0.898466,-13.094230,-0.001298,0.000968,-0.000819
1218.748873,-0.642101,0.763723,-0.010812,-0.065704,1.504140,0.895514,-13.070433,-0.001298,0.005225,-0.001884
1218.770492,-0.642072,0.763665,-0.010894,-0.066638,1.561191,0.933419,-13.095135,-0.001298,0.004161,-0.000819
1218.791380,-0.642131,0.763511,-0.009415,-0.068042,1.568308,1.351380,-13.093272,0.000830,-0.002224,-0.002948
1218.812664,-0.642202,0.763527,-0.010753,-0.066988,1.536553,0.747665,-12.974951,-0.004491,-0.004353,-0.014654
1218.833395,-0.642140,0.763697,-0.012225,-0.065381,1.492366,0.432623,-13.128619,0.018922,-0.008610,0.005566
1218.854303,-0.642086,0.763849,-0.013042,-0.063951,1.468982,0.688077,-13.122936,0.000830,-0.001160,0.006630
1218.875680,-0.642094,0.763879,-0.011791,-0.063760,1.436794,0.883736,-13.101836,-0.009812,0.004161,0.007694
1218.898678,-0.642106,0.763711,-0.010635,-0.065824,1.569959,1.111885,-13.087333,-0.013005,0.020124,-0.001884
1218.919924,-0.642015,0.763619,-0.011001,-0.067684,1.681959,0.994383,-13.072438,-0.004491,0.002033,0.000245
1218.940610,-0.642078,0.763548,-0.010050,-0.068041,1.534350,1.005016,-13.031553,0.011472,-0.010738,-0.001884
1218.961387,-0.642199,0.763518,-0.008938,-0.067391,1.462500,1.013374,-13.161332,0.017858,-0.011802,-0.002948
1218.982556,-0.642289,0.763581,-0.009806,-0.065679,1.405374,0.698406,-13.095847,0.006151,-0.004353,-0.009333
1219.003194,-0.642255,0.763701,-0.011093,-0.064397,1.452638,0.545979,-13.121922,-0.007684,0.007354,0.000245
1219.025187,-0.642131,0.763754,-0.011237,-0.064979,1.519676,0.881255,-13.107264,-0.011941,0.010546,0.010887
1219.046050,-0.642148,0.763611,-0.009864,-0.066681,1.715608,2.246829,-13.205249,-0.008748,0.012675,0.000245
1219.067202,-0.642084,0.763761,-0.011738,-0.065263,1.567370,0.419784,-13.073315,0.030628,-0.008610,0.003437
1219.088312,-0.642077,0.763866,-0.011869,-0.064076,1.488772,0.828074,-13.329086,0.012537,-0.010738,0.005566
1219.109107,-0.642144,0.763887,-0.010773,-0.063334,1.374293,0.864697,-12.961831,-0.008748,-0.001160,0.001309
1219.130365,-0.642176,0.763753,-0.009242,-0.064849,1.461996,1.216085,-13.061146,-0.009812,0.016932,0.000245
1219.151318,-0.642161,0.763576,-0.009112,-0.067068,1.770703,1.206151,-13.082432,-0.008748,0.012675,-0.007205
1219.172658,-0.642174,0.763508,-0.010500,-0.067517,1.615188,0.878936,-13.020880,-0.007684,-0.004353,-0.014654
1219.193344,-0.642255,0.763377,-0.009380,-0.068376,1.552686,1.083467,-13.026114,0.019986,-0.020316,-0.005076
1219.214125,-0.642310,0.763495,-0.010141,-0.066411,1.394192,0.681750,-13.001711,0.017858,-0.020316,-0.002948
1219.235453,-0.642316,0.763621,-0.011315,-0.064697,1.317218,0.197112,-13.146572,-0.000234,-0.000096,-0.001884
1219.256105,-0.642245,0.763769,-0.012332,-0.063449,1.411894,0.548903,-13.102049,-0.021519,0.019060,0.005566
1219.277491,-0.642157,0.763751,-0.011977,-0.064611,1.514038,0.877788,-13.058633,-0.024711,0.027574,0.007694
1219.298122,-0.642124,0.763617,-0.011037,-0.066660,1.656315,1.246654,-13.051258,-0.014069,0.024381,0.002373
1219.319062,-0.642150,0.763458,-0.009831,-0.068397,1.643954,1.381679,-13.045796,-0.002363,0.008418,-0.001884
1219.340825,-0.642129,0.763337,-0.009035,-0.070039,1.629060,1.147150,-12.990778,0.008280,-0.006481,0.001309
1219.361628,-0.642190,0.763431,-0.009934,-0.068311,1.498668,0.796567,-13.163555,0.018922,-0.013931,-0.005076
1219.403105,-0.642307,0.763634,-0.011243,-0.064646,1.378290,0.653916,-13.092403,0.005087,-0.006481,-0.004012
1219.424677,-0.642248,0.763528,-0.010555,-0.066570,1.588873,1.037312,-13.084577,-0.013005,0.013739,0.003437
1219.445389,-0.642210,0.763392,-0.010476,-0.068476,1.648450,1.029076,-12.993197,-0.011941,0.008418,-0.004012
1219.466266,-0.642227,0.763297,-0.009923,-0.069449,1.596127,1.036255,-13.079540,0.007215,-0.004353,-0.001884
1219.487652,-0.642286,0.763342,-0.010096,-0.068386,1.536910,0.934821,-13.130431,0.013601,-0.011802,-0.002948
1219.508480,-0.642359,0.763429,-0.010682,-0.066620,1.419230,0.735225,-13.114822,0.007215,-0.004353,-0.005076
1219.529670,-0.642350,0.763553,-0.011373,-0.065152,1.446748,0.742362,-13.118967,-0.002363,0.004161,0.002373
1219.550476,-0.642305,0.763526,-0.011247,-0.065924,1.540933,0.910064,-13.111393,-0.014069,0.010546,0.002373
1219.571706,-0.642271,0.763435,-0.010374,-0.067431,1.565267,1.023924,-13.045602,-0.009812,0.007354,0.003437
1219.592675,-0.642260,0.763320,-0.009977,-0.068883,1.611523,1.042906,-13.100686,0.001894,0.003097,-0.001884
1219.613525,-0.642271,0.763376,-0.010771,-0.068041,1.554704,0.883383,-13.075326,0.006151,-0.003288,-0.002948
1219.635450,-0.642330,0.763457,-0.011017,-0.066517,1.474640,0.842104,-13.084479,0.008280,-0.006481,-0.001884
1219.656531,-0.642365,0.763546,-0.011166,-0.065119,1.435287,0.805350,-13.105529,-0.003427,0.002033,0.000245
1219.678368,-0.642331,0.763574,-0.011880,-0.064993,1.527482,0.835760,-13.097861,-0.007684,0.007354,-0.000819
1219.699218,-0.642289,0.763491,-0.011576,-0.066431,1.580379,0.949753,-13.071479,-0.005555,0.006290,0.001309
1219.721401,-0.642260,0.763393,-0.010663,-0.067968,1.585566,1.039863,-13.036135,-0.001298,0.002033,0.003437
1219.742098,-0.642305,0.763340,-0.009840,-0.068268,1.543295,1.005932,-13.128626,0.002959,-0.003288,-0.000819
1219.765590,-0.642335,0.763424,-0.010868,-0.066866,1.521367,0.821361,-13.138970,0.006151,-0.003288,-0.004012
1219.788909,-0.642342,0.763492,-0.011423,-0.065931,1.512902,0.846426,-13.103570,-0.001298,0.002033,-0.000819
1219.809823,-0.642380,0.763449,-0.010546,-0.066198,1.499882,0.947096,-13.077613,-0.003427,0.003097,0.000245
1219.831069,-0.642354,0.763372,-0.010723,-0.067302,1.575792,0.946895,-13.044205,-0.003427,0.004161,-0.002948
1219.852437,-0.642336,0.763391,-0.011553,-0.067124,1.572633,0.877944,-13.098224,-0.000234,0.000968,-0.002948
1219.874516,-0.642359,0.763415,-0.011610,-0.066617,1.535224,0.888567,-13.104694,0.002959,-0.001160,-0.000819
1219.895545,-0.642396,0.763391,-0.011119,-0.066618,1.519654,0.921662,-13.040214,0.001894,-0.000096,-0.000819
1219.919901,-0.642474,0.763362,-0.010439,-0.066305,1.494189,0.926935,-13.066226,0.000830,0.000968,-0.002948
1219.945264,-0.642432,0.763431,-0.011855,-0.065680,1.545819,0.814375,-13.087990,-0.002363,0.003097,-0.001884
1219.966666,-0.642460,0.763365,-0.010783,-0.066347,1.515204,0.969880,-13.081673,-0.001298,0.002033,0.001309
1219.989723,-0.642478,0.763303,-0.010240,-0.066982,1.528756,0.958703,-13.051050,-0.000234,0.002033,-0.000819
1220.011246,-0.642480,0.763327,-0.010864,-0.066583,1.534263,0.883278,-13.078379,-0.000234,0.000968,-0.002948
1220.033262,-0.642483,0.763369,-0.011264,-0.065997,1.517576,0.867379,-13.086539,-0.001298,0.002033,-0.000819
1220.054078,-0.642461,0.763341,-0.011306,-0.066532,1.556436,0.917178,-13.115938,-0.001298,0.003097,0.000245
1220.075450,-0.642495,0.763310,-0.010791,-0.066646,1.518208,0.931990,-13.058525,-0.000234,0.002033,-0.000819
1220.096271,-0.642531,0.763282,-0.010565,-0.066649,1.519451,0.925846,-13.062959,-0.000234,0.000968,-0.002948
1220.117381,-0.642513,0.763293,-0.011014,-0.066628,1.542636,0.897054,-13.059719,0.000830,-0.000096,-0.000819
1220.138791,-0.642548,0.763292,-0.010538,-0.066390,1.503604,0.926093,-13.096735,-0.000234,0.000968,0.000245
1220.159649,-0.642537,0.763269,-0.010647,-0.066737,1.545560,0.928281,-13.106112,0.000830,0.000968,-0.000819
1220.181177,-0.642525,0.763281,-0.011180,-0.066627,1.545125,0.888573,-13.061633,-0.000234,-0.000096,-0.001884
1220.201903,-0.642539,0.763324,-0.011606,-0.065923,1.518898,0.851447,-13.096471,-0.000234,0.000968,-0.001884
1220.223199,-0.642540,0.763288,-0.011324,-0.066377,1.544333,0.923103,-13.118980,0.000830,0.002033,0.000245
1220.243862,-0.642536,0.763255,-0.011098,-0.066830,1.548064,0.931253,-13.085982,-0.000234,0.000968,0.000245
1220.264745,-0.642542,0.763276,-0.011310,-0.066496,1.531779,0.887986,-13.082231,-0.000234,0.000968,-0.000819
1220.287774,-0.642514,0.763300,-0.011783,-0.066408,1.548799,0.876221,-13.072831,-0.002363,0.002033,0.000245
1220.308559,-0.642537,0.763224,-0.010910,-0.067208,1.546305,0.979462,-13.084619,-0.000234,0.002033,0.000245
1220.330224,-0.642537,0.763214,-0.010955,-0.067313,1.547252,0.922818,-13.042903,-0.000234,-0.000096,-0.000819
1220.352436,-0.642545,0.763224,-0.011251,-0.067078,1.550739,0.903328,-13.094148,0.001894,-0.001160,-0.001884
1220.373776,-0.642560,0.763281,-0.011639,-0.066209,1.517704,0.852747,-13.093007,0.000830,0.000968,-0.000819
1220.394437,-0.642583,0.763293,-0.011214,-0.065919,1.500462,0.898984,-13.075458,-0.002363,0.002033,0.001309
1220.415229,-0.642574,0.763256,-0.011016,-0.066464,1.542084,0.927567,-13.088392,-0.001298,0.002033,0.000245
1220.436551,-0.642559,0.763231,-0.010959,-0.066903,1.547011,0.926836,-13.071577,-0.002363,0.003097,0.000245
1220.457305,-0.642551,0.763225,-0.011174,-0.067011,1.554213,0.912891,-13.096831,0.000830,0.002033,-0.000819
1220.478179,-0.642556,0.763217,-0.011200,-0.067061,1.550527,0.917597,-13.100724,0.000830,0.000968,-0.000819
1220.499549,-0.642569,0.763224,-0.011083,-0.066869,1.531551,0.913576,-13.071505,0.001894,-0.000096,0.000245
1220.520271,-0.642593,0.763218,-0.011031,-0.066715,1.532577,0.911549,-13.101055,-0.000234,0.000968,-0.001884
1220.541515,-0.642569,0.763254,-0.011735,-0.066415,1.551300,0.862730,-13.081645,-0.000234,0.000968,-0.000819
1220.562191,-0.642601,0.763227,-0.011097,-0.066516,1.520345,0.932106,-13.097629,-0.000234,0.002033,0.000245
1220.583809,-0.642664,0.763187,-0.010289,-0.066500,1.495235,0.946513,-13.055190,-0.000234,-0.000096,-0.001884
1220.604655,-0.642668,0.763212,-0.010547,-0.066139,1.510162,0.894323,-13.070179,-0.000234,0.000968,-0.000819
1220.625608,-0.642684,0.763195,-0.010676,-0.066161,1.524240,0.908057,-13.096431,-0.000234,0.000968,-0.002948
1220.646912,-0.642676,0.763183,-0.010832,-0.066340,1.529342,0.908086,-13.052344,-0.000234,0.002033,-0.000819
1220.667715,-0.642669,0.763183,-0.011076,-0.066368,1.537612,0.901162,-13.084995,0.001894,-0.000096,-0.000819
1220.689255,-0.642659,0.763200,-0.011625,-0.066184,1.542879,0.870262,-13.070391,-0.000234,-0.000096,-0.001884
1220.710407,-0.642677,0.763236,-0.011781,-0.065568,1.512779,0.857284,-13.102869,-0.000234,-0.000096,-0.000819
1220.731801,-0.642690,0.763249,-0.011670,-0.065297,1.507868,0.872007,-13.093004,-0.001298,0.002033,0.000245
1220.752510,-0.642686,0.763199,-0.011139,-0.066009,1.530117,0.932818,-13.072407,-0.001298,0.002033,0.001309
1220.773715,-0.642703,0.763173,-0.010691,-0.066224,1.512250,0.927134,-13.059696,-0.001298,0.002033,0.000245
1220.795690,-0.642700,0.763185,-0.010956,-0.066075,1.518745,0.890023,-13.051897,-0.001298,0.003097,-0.000819
1220.816362,-0.642652,0.763164,-0.011220,-0.066732,1.561674,0.915265,-13.055143,-0.001298,0.002033,0.001309
1220.838356,-0.642665,0.763075,-0.010346,-0.067757,1.553399,1.003023,-13.060502,-0.000234,0.000968,0.000245
1220.859130,-0.642704,0.763058,-0.010030,-0.067630,1.527326,0.956440,-13.088980,0.000830,-0.000096,-0.001884
1220.880797,-0.642719,0.763107,-0.010862,-0.066801,1.527548,0.858832,-13.047844,0.001894,-0.001160,-0.004012
1220.901878,-0.642720,0.763147,-0.011301,-0.066259,1.527115,0.872142,-13.088806,0.001894,-0.000096,-0.000819
1220.922998,-0.642742,0.763137,-0.010929,-0.066222,1.512327,0.916077,-13.067511,0.000830,0.000968,0.000245
1220.965714,-0.642769,0.763153,-0.010960,-0.065773,1.512505,0.895332,-13.077267,-0.001298,0.002033,-0.000819
1220.997285,-0.642695,0.763128,-0.011668,-0.066647,1.557077,0.897180,-13.055681,-0.000234,0.000968,0.000245
1221.018207,-0.642726,0.763109,-0.011104,-0.066666,1.519580,0.925139,-13.045119,0.000830,-0.000096,0.000245
1221.039878,-0.642755,0.763149,-0.011366,-0.065882,1.501114,0.858782,-13.048725,-0.000234,0.002033,-0.001884
1221.060624,-0.642738,0.763166,-0.011667,-0.065793,1.535368,0.874001,-13.108791,-0.001298,0.002033,0.000245
1221.081835,-0.642753,0.763110,-0.010842,-0.066445,1.523850,0.955727,-13.071260,-0.001298,0.002033,0.001309
1221.102874,-0.642769,0.763033,-0.010189,-0.067266,1.543761,0.985174,-13.095641,-0.000234,0.000968,-0.000819
1221.123828,-0.642775,0.763058,-0.010752,-0.066833,1.537682,0.891341,-13.091679,0.000830,-0.001160,-0.002948
1221.145247,-0.642759,0.763092,-0.011532,-0.066471,1.546661,0.863448,-13.055718,0.001894,-0.000096,-0.001884
1221.166543,-0.642748,0.763081,-0.011592,-0.066693,1.549735,0.904185,-13.063359,0.000830,0.002033,0.000245
1221.188110,-0.642801,0.763096,-0.010990,-0.066113,1.490423,0.909771,-13.120190,-0.000234,0.000968,0.000245
1221.209370,-0.642798,0.763122,-0.011350,-0.065775,1.515484,0.867461,-13.040321,-0.001298,0.002033,-0.000819
1221.233450,-0.642784,0.763074,-0.011334,-0.066465,1.551797,0.916627,-13.092329,-0.000234,0.002033,-0.000819
1221.254620,-0.642789,0.763050,-0.011071,-0.066741,1.539635,0.927364,-13.095586,-0.000234,0.002033,0.000245
1221.275533,-0.642823,0.763025,-0.010605,-0.066777,1.523689,0.941107,-13.120469,0.000830,0.000968,-0.000819
1221.296925,-0.642852,0.763016,-0.010621,-0.066599,1.521863,0.914496,-13.081366,-0.000234,0.000968,-0.002948
1221.317683,-0.642850,0.763064,-0.011002,-0.066006,1.511495,0.872113,-13.089327,-0.000234,0.002033,0.000245
1221.339004,-0.642860,0.763012,-0.010439,-0.066591,1.525057,0.953224,-13.074669,-0.001298,0.002033,0.000245
1221.359765,-0.642869,0.763012,-0.010429,-0.066512,1.521624,0.921052,-13.105404,-0.001298,0.000968,-0.000819
1221.380777,-0.642881,0.763040,-0.010777,-0.066012,1.506951,0.879572,-13.037583,0.000830,-0.001160,-0.001884
1221.402596,-0.642864,0.763053,-0.011245,-0.065947,1.535350,0.882785,-13.096125,0.000830,-0.000096,-0.000819
1221.423725,-0.642863,0.763035,-0.011102,-0.066198,1.535880,0.916578,-13.136777,-0.000234,0.002033,0.000245
1221.445466,-0.642880,0.762990,-0.010518,-0.066642,1.524926,0.950124,-13.099462,-0.001298,0.003097,0.000245
1221.487303,-0.642747,0.762974,-0.012288,-0.067797,1.593117,0.898484,-13.053347,-0.001298,0.000968,-0.000819
1221.508505,-0.642828,0.762962,-0.011319,-0.067332,1.512898,0.941186,-13.117272,0.000830,-0.000096,-0.000819
1221.529595,-0.642863,0.762942,-0.011026,-0.067271,1.538519,0.930263,-13.077948,0.000830,-0.000096,-0.001884
1221.551401,-0.642881,0.762981,-0.011419,-0.066591,1.526119,0.871763,-13.059148,0.000830,0.000968,-0.001884
1221.572444,-0.642900,0.762999,-0.011445,-0.066194,1.520941,0.885329,-13.090785,-0.000234,0.002033,-0.000819
1221.594464,-0.642906,0.762975,-0.011323,-0.066429,1.538705,0.910820,-13.084200,-0.000234,0.000968,-0.000819
1221.615442,-0.642930,0.762943,-0.010912,-0.066639,1.531091,0.933098,-13.105622,-0.000234,0.000968,-0.000819
1221.637336,-0.642927,0.762966,-0.011441,-0.066303,1.537961,0.874832,-13.079067,0.000830,-0.000096,-0.001884
1221.658959,-0.642944,0.762981,-0.011616,-0.065940,1.528099,0.876261,-13.113882,-0.000234,-0.000096,-0.001884
1221.680677,-0.642993,0.762945,-0.010672,-0.066039,1.493833,0.941844,-13.093013,-0.001298,0.002033,0.000245
1221.702439,-0.642966,0.762926,-0.011025,-0.066457,1.552919,0.911223,-13.113417,-0.000234,0.002033,-0.000819
1221.723426,-0.642986,0.762945,-0.011212,-0.066025,1.511734,0.878213,-13.043298,-0.000234,0.000968,-0.001884
1221.745212,-0.643013,0.762958,-0.011111,-0.065619,1.494931,0.883323,-13.032217,0.000830,0.000968,-0.000819
1221.766571,-0.642999,0.762979,-0.011427,-0.065460,1.517654,0.870247,-13.070047,-0.000234,0.002033,0.000245
1221.788200,-0.642998,0.762913,-0.011076,-0.066291,1.544340,0.935793,-13.095803,-0.001298,0.002033,-0.000819
1221.809220,-0.642996,0.762894,-0.011245,-0.066502,1.544846,0.905082,-13.074245,-0.000234,-0.000096,-0.001884
1221.830459,-0.643033,0.762915,-0.011225,-0.065904,1.500776,0.878834,-13.063870,-0.000234,0.000968,-0.001884
1221.852372,-0.643066,0.762869,-0.010586,-0.066223,1.511946,0.939737,-13.082818,-0.000234,0.000968,-0.000819
1221.873411,-0.643055,0.762843,-0.010664,-0.066609,1.537527,0.924842,-13.056375,0.000830,-0.000096,-0.000819
1221.895010,-0.643065,0.762870,-0.010883,-0.066169,1.514944,0.890426,-13.080529,0.000830,-0.000096,-0.000819
1221.915943,-0.643062,0.762906,-0.011472,-0.065685,1.521445,0.852079,-13.073861,-0.001298,0.000968,-0.001884
1221.937910,-0.643054,0.762885,-0.011370,-0.066020,1.528296,0.901164,-13.041389,-0.001298,0.002033,0.000245
1221.958920,-0.643098,0.762818,-0.010432,-0.066514,1.516081,0.972268,-13.125668,-0.000234,0.000968,-0.000819
1221.980012,-0.643107,0.762788,-0.010377,-0.066790,1.529083,0.933543,-13.046361,-0.000234,-0.000096,-0.001884
1222.001696,-0.643125,0.762840,-0.010861,-0.065930,1.501953,0.862274,-13.096331,0.000830,0.000968,-0.001884
1222.022778,-0.643112,0.762819,-0.011040,-0.066274,1.539936,0.909685,-13.081735,0.000830,0.002033,-0.000819
1222.044642,-0.643098,0.762806,-0.011257,-0.066523,1.550567,0.907644,-13.112150,-0.000234,0.000968,-0.000819
1222.065656,-0.643108,0.762828,-0.011595,-0.066107,1.531778,0.872792,-13.108857,0.000830,0.000968,-0.001884
1222.086839,-0.643096,0.762842,-0.011975,-0.065997,1.542847,0.867591,-13.079769,-0.001298,0.000968,-0.000819
1222.108591,-0.643118,0.762814,-0.011295,-0.066232,1.519345,0.925383,-13.079559,-0.000234,0.002033,0.001309
1222.129514,-0.643121,0.762761,-0.010822,-0.066894,1.543087,0.952022,-13.075200,-0.000234,0.000968,0.000245
1222.151643,-0.643137,0.762778,-0.011049,-0.066494,1.529077,0.895542,-13.113518,-0.000234,0.000968,-0.001884
1222.172645,-0.643123,0.762834,-0.011774,-0.065870,1.535668,0.841129,-13.121565,-0.000234,-0.000096,-0.000819
1222.194411,-0.643149,0.762806,-0.011207,-0.066029,1.515736,0.919031,-13.091268,-0.000234,0.002033,0.000245
1222.215335,-0.643165,0.762775,-0.010895,-0.066280,1.524143,0.924090,-13.082902,-0.000234,0.000968,-0.000819
1222.236915,-0.643155,0.762788,-0.011403,-0.066152,1.539134,0.878509,-13.076817,-0.000234,-0.000096,-0.001884
1222.258723,-0.643177,0.762788,-0.011440,-0.065931,1.521009,0.885626,-13.080113,-0.000234,0.000968,-0.001884
1222.279705,-0.643180,0.762750,-0.011091,-0.066406,1.534898,0.928921,-13.082757,-0.000234,0.002033,0.000245
1222.301592,-0.643189,0.762702,-0.010745,-0.066909,1.537332,0.941714,-13.055944,-0.000234,0.000968,-0.000819
1222.322697,-0.643229,0.762727,-0.010737,-0.066242,1.499280,0.894005,-13.081211,0.000830,-0.000096,-0.001884
1222.344573,-0.643220,0.762758,-0.011237,-0.065893,1.524713,0.873406,-13.086568,0.000830,0.000968,-0.000819
1222.365649,-0.643212,0.762742,-0.011359,-0.066136,1.538813,0.899895,-13.087273,-0.000234,0.002033,-0.000819
1222.386851,-0.643196,0.762674,-0.011031,-0.067128,1.566977,0.957784,-13.085340,-0.000234,0.000968,0.000245
1222.408610,-0.643211,0.762700,-0.011326,-0.066633,1.530659,0.884540,-13.076181,-0.000234,0.000968,-0.001884
1222.429519,-0.643210,0.762744,-0.011639,-0.066078,1.524739,0.865925,-13.095731,-0.000234,0.000968,0.000245
1222.451044,-0.643202,0.762696,-0.011358,-0.066759,1.552946,0.931592,-13.073964,-0.000234,0.002033,0.000245
1222.471808,-0.643204,0.762665,-0.011222,-0.067120,1.550700,0.927206,-13.058414,-0.001298,0.002033,-0.000819
1222.492938,-0.643240,0.762667,-0.010903,-0.066801,1.520422,0.921049,-13.105444,-0.000234,-0.000096,-0.000819
1222.514888,-0.643206,0.762682,-0.011605,-0.066830,1.563161,0.884866,-13.065613,0.000830,0.000968,-0.000819
1222.535890,-0.643226,0.762678,-0.011308,-0.066743,1.532587,0.916657,-13.090599,0.000830,-0.000096,0.000245
1222.557730,-0.643256,0.762659,-0.010946,-0.066731,1.525300,0.926432,-13.085342,0.000830,0.002033,-0.000819
1222.578688,-0.643242,0.762661,-0.011441,-0.066756,1.555775,0.892942,-13.078088,0.000830,0.000968,-0.001884
1222.601002,-0.643253,0.762693,-0.011859,-0.066212,1.534380,0.863537,-13.095303,-0.000234,0.002033,-0.001884
1222.621942,-0.643273,0.762664,-0.011352,-0.066442,1.523318,0.919396,-13.035243,-0.001298,0.002033,0.000245
1222.643133,-0.643287,0.762651,-0.011058,-0.066506,1.526543,0.920288,-13.089775,-0.000234,0.002033,0.000245
1222.664893,-0.643318,0.762630,-0.010821,-0.066482,1.526242,0.924041,-13.127935,0.000830,0.000968,-0.001884
1222.685876,-0.643303,0.762647,-0.011288,-0.066365,1.537944,0.884885,-13.064083,-0.000234,0.002033,-0.000819
1222.707506,-0.643298,0.762669,-0.011658,-0.066093,1.535444,0.874332,-13.096933,-0.000234,0.002033,-0.000819
1222.728206,-0.643305,0.762585,-0.011093,-0.067078,1.556311,0.964736,-13.051583,-0.000234,0.003097,-0.000819
1222.749442,-0.643329,0.762568,-0.010796,-0.067089,1.535801,0.936484,-13.113924,-0.000234,0.000968,-0.000819
1222.770075,-0.643350,0.762616,-0.011176,-0.066277,1.514975,0.866515,-13.117449,0.000830,-0.000096,-0.001884
1222.790914,-0.643355,0.762603,-0.011172,-0.066379,1.535024,0.909214,-13.098496,-0.000234,0.002033,-0.000819
1222.812322,-0.643330,0.762558,-0.011267,-0.067113,1.565194,0.927564,-13.046075,-0.001298,0.002033,-0.000819
1222.832994,-0.643357,0.762576,-0.011179,-0.066665,1.519687,0.900289,-13.072499,-0.000234,-0.000096,-0.000819
